time,seconds_elapsed,z,y,x
1788867442177628700,0.055628662109375,-0.016212299132347105,-0.2232261331923306,-0.11396017771158366
1788867442187588600,0.065588623046875,-0.1273790102005005,-0.23957594109922645,-0.16141577463587745
1788867442197548500,0.075548583984375,-0.14246902730464933,-0.2178194518432021,-0.17217554398337379
1788867442207508700,0.0855087890625,-0.12011515667736529,-0.1867741791076958,-0.21703067608568816
1788867442217468700,0.09546875,-0.11577215903699398,-0.20483283675909042,-0.21782398188784718
1788867442227428600,0.1054287109375,-0.02104921776950359,-0.18520751431286334,-0.155564107731916
1788867442237388500,0.115388427734375,0.02650163795650005,-0.13823548138812183,-0.12095964467748999
1788867442247348700,0.1253486328125,0.02933306199014187,-0.0617436317294836,-0.06791017326889559
1788867442257308700,0.13530859375,0.0314665668874979,0.012351532050967215,-0.022440452932193874
1788867442267269600,0.14526953125,0.03345101870298386,0.003902414266020059,-0.023641992475371805
1788867442277229800,0.155229736328125,0.03583703705668449,-0.012772241681069135,0.009758994807116686
1788867442287189800,0.165189697265625,-0.02965980972647667,-0.06791618288457393,0.008279515105392784
1788867442297149700,0.175149658203125,-0.10663491285741329,-0.10362184864655137,-0.00702861999515444
1788867442307110000,0.18510986328125,-0.1804606120467186,-0.11874474510699509,-0.020592870570439844
1788867442317069800,0.19506982421875,-0.17882862693071364,-0.12588628742471336,-0.020927984276320782
1788867442327029800,0.20502978515625,-0.1456435656875372,-0.030573125179111954,-0.02069795664642006
1788867442336989700,0.21498974609375,-0.07058978600800037,-0.015580869361013173,0.021797241391520946
1788867442346950000,0.224949951171875,-0.009750409641861916,-0.047792117135971784,0.05953448604634031
1788867442356910600,0.23491064453125,0.04828150808811187,-0.04945712773874402,0.0970396755109541
1788867442366870500,0.24487060546875,0.049853871971368785,-0.05538111096024513,0.08776815369352697
1788867442376830700,0.254830810546875,0.16683423775434494,-0.12349997681006789,0.12941679963842034
1788867442386790700,0.264790771484375,0.14848434207141398,-0.14403759179562328,0.1112043213984929
1788867442396750600,0.27475048828125,0.1162766014277935,-0.15292232451885937,0.08283873446732759
1788867442406710500,0.28471044921875,0.0848532891601324,-0.12652063980549574,0.08113552901232615
1788867442416670700,0.294670654296875,0.0863999340802431,-0.1330849667571485,0.07678180904854089
1788867442426630700,0.304630615234375,0.09127309307456016,-0.10786284721717238,0.0760987952204421
1788867442436590600,0.314590576171875,0.1120370641618967,-0.10268179131746291,0.11412347851451486
1788867442446551800,0.3245517578125,0.08339899869859219,-0.08916355357468128,0.11482161684650927
1788867442456511700,0.33451171875,0.05655541543662548,-0.07706088171824813,0.09284483590330928
1788867442466471700,0.3444716796875,0.05781038393378257,-0.08238967552557587,0.08813779072351753
1788867442476431600,0.354431640625,0.10578326446413994,-0.03262596605569124,0.13522634443370624
1788867442486391800,0.364391845703125,0.13837854312062262,0.006923223391920328,0.12435812800936401
1788867442496351700,0.374351806640625,0.08883037609755992,0.010344430012255906,0.11300587266143411
1788867442506311700,0.384311767578125,0.030096447578072547,0.008570406077057122,0.08105572350807487
1788867442516271900,0.39427197265625,0.03131692928373814,0.0029484745420515534,0.08022475257664918
1788867442526231800,0.404231689453125,-0.00433481433391571,0.011294278082996606,0.016316581490729003
1788867442536192800,0.41419287109375,-0.1166512799590826,0.03518646419346332,-0.030778146231919525
1788867442546152700,0.424152587890625,-0.1496814429014921,0.1094062772668898,-0.051929673598427324
1788867442556112600,0.434112548828125,-0.16608721877932547,0.19992972101792691,-0.06130894837295636
1788867442566072600,0.444072509765625,-0.1644435432255268,0.19246362292096017,-0.0653051053370349
1788867442576032500,0.454032470703125,-0.014089315629005431,0.21230156520456075,0.0098853246005252
1788867442585992700,0.46399267578125,0.13123977728188038,0.14118702467009425,0.029437691408395767
1788867442595952600,0.47395263671875,0.20575521230101584,0.044672962202131745,0.03426626234231517
1788867442605912600,0.48391259765625,0.21863982831537723,-0.056342941729724406,0.047823571720160545
1788867442615872500,0.49387255859375,0.22007366051077842,-0.06300824483782053,0.044337729765241966
1788867442625833700,0.503833740234375,0.18161971895396709,0.06832140268459916,0.029684387045307084
1788867442635793700,0.513793701171875,0.16679858191907404,0.19345964822098613,0.03657311451258138
1788867442645753600,0.523753662109375,0.2382821018964052,0.26649258959740396,0.09322615423793904
1788867442655713800,0.5337138671875,0.33910043742954726,0.33514673136770723,0.10834270315598696
1788867442665673700,0.543673828125,0.3428694345742464,0.31667028669565916,0.10425583570115268
1788867442675633700,0.553633544921875,0.36667701114118095,0.21133564278185366,0.21666483844798057
1788867442685593900,0.56359375,0.3586147007167339,0.1623060928054154,0.2089416785837151
1788867442695553800,0.5735537109375,0.2348486203163862,0.11763853743076323,0.19361498491317033
1788867442705513700,0.583513671875,0.1338748019605875,0.10105375172421335,0.1552394423548132
1788867442715474700,0.593474609375,0.13903437668085097,0.07408347334265708,0.14646329370574093
1788867442725435000,0.603434814453125,0.18244564838409422,0.06108765203878283,0.09661381478169932
1788867442735394800,0.613394775390625,0.2391010170638561,-0.059970922968536615,0.08971892243511974
1788867442745354800,0.623354736328125,0.2957932106226682,-0.14501345109045505,0.054172534321504644
1788867442755315000,0.63331494140625,0.3563397415220737,-0.21475158870518207,0.054475339493248606
1788867442765275000,0.64327490234375,0.36298867801725865,-0.2532198510482907,0.03679234218725469
1788867442775234800,0.65323486328125,0.3976619319915771,-0.2310221938960254,0.09381282241893932
1788867442785194800,0.66319482421875,0.3478577443808317,-0.1758174624159932,0.10580134811010211
1788867442795154700,0.67315478515625,0.26567630477845666,-0.17167758613228798,0.11495370966042391
1788867442805115600,0.68311572265625,0.22335750448703764,-0.20500585523843765,0.1296969865529798
1788867442815075600,0.69307568359375,0.2298649866849184,-0.24882921487390994,0.12482653097240254
1788867442825035800,0.703035888671875,-0.07301029115319252,-0.23798794125542044,-0.003368894194497261
1788867442834995700,0.71299560546875,-0.11506254946291446,-0.2801806309491396,-0.029610894834122152
1788867442844955100,0.722955078125,-0.14480536129772661,-0.29425080348625776,-0.053414870654884726
1788867442854915300,0.732915283203125,-0.09084639209508895,-0.2611873227961361,-0.07963268670132383
1788867442864875300,0.742875244140625,-0.08564823893010616,-0.30293628731034694,-0.08770898911850526
1788867442874835200,0.752835205078125,-0.03751461488008499,-0.3454930610761046,-0.013412434714171103
1788867442884795100,0.762795166015625,-0.07248772858381271,-0.3828259627137333,0.0008929896172368898
1788867442894756400,0.77275634765625,-0.09527239184379577,-0.398134956330806,-0.0068203292730264365
1788867442904716300,0.78271630859375,-0.137988082498312,-0.38136999175176023,-0.0016230163582600652
1788867442914676200,0.79267626953125,-0.1351777012526989,-0.4084359855927527,-0.012529929958330466
1788867442924636400,0.802636474609375,0.000689151307940483,-0.31365203485302623,0.03062991513395682
1788867442934596400,0.812596435546875,0.09896189401149749,-0.29346608284935355,0.03780320429680869
1788867442944556300,0.822556396484375,0.19056874908506868,-0.29480551475957034,0.03877705429764464
1788867442954516200,0.83251611328125,0.2447925067037344,-0.30109358205311,0.06467533779982478
1788867442964476400,0.842476318359375,0.24637130032777785,-0.3189269065160304,0.05644561665290966
1788867442974436400,0.852436279296875,0.2796481315076351,-0.3653547495614737,0.12636899290774017
1788867442984397000,0.86239697265625,0.224091663980484,-0.3682779435317963,0.1504333207147196
1788867442994357200,0.872357177734375,0.18779051654338835,-0.26340214930139483,0.13983851440427825
1788867443004317200,0.882317138671875,0.15462532904446125,-0.14617927999943495,0.13966845506699754
1788867443014277000,0.892277099609375,0.155899586763978,-0.16097279837504028,0.1382253801192157
1788867443024237000,0.902237060546875,0.1911865887224674,-0.04294153529964387,0.20648073183028026
1788867443034197200,0.912197265625,0.1546972252368927,-0.07360701493732631,0.24420323557369408
1788867443044157200,0.9221572265625,0.08639642694890498,-0.05515563164129853,0.20897046628678217
1788867443054117000,0.9321171875,-0.0005891980648040771,-0.013213044251129031,0.1435566216119565
1788867443064077300,0.942077392578125,0.0008224222987890243,-0.02997318652458489,0.14854893174022435
1788867443074038300,0.952038330078125,-0.143172791659832,-0.061688175215199585,0.023754686469072476
1788867443083998200,0.961998291015625,-0.1923158850133419,-0.05082432443872094,-0.02908876837287098
1788867443093958400,0.97195849609375,-0.20840543454885482,-0.04104819583371282,-0.048294285371294245
1788867443103918300,0.98191845703125,-0.2017664349257946,-0.024959888407215476,-0.0762979619211983
1788867443113878300,0.991878173828125,-0.201142750069499,-0.03374941712766886,-0.07736195615720935
1788867443123838200,1.001838134765625,-0.005084171396493912,-0.15409604447335004,-0.06866809723041951
1788867443133798400,1.01179833984375,-0.004640519282221794,-0.16125124999023974,-0.07305209360145963
1788867443143758300,1.02175830078125,0.18139935420155523,-0.34275464908815917,-0.16622414303198454
1788867443153718300,1.03171826171875,0.1819716011315584,-0.3518348313182592,-0.1699462688276544
1788867443163679500,1.041679443359375,0.23531214617490767,-0.4108111172262579,-0.21105432335613294
1788867443173639400,1.051639404296875,0.2264659918963909,-0.5473278850629926,-0.2945245241274126
1788867443183599400,1.061599365234375,0.22724340600967405,-0.5590740716319531,-0.29452240523556245
1788867443193559300,1.071559326171875,0.15335224036872386,-0.46958113997243345,-0.35377697836197913
1788867443203519200,1.081519287109375,0.1627484297454357,-0.507322257084772,-0.3282120367337018
1788867443213479200,1.091479248046875,0.1633802979081869,-0.5177167002512142,-0.32942477352432903
1788867443223439000,1.101439208984375,0.144191028791666,-0.5778346670076251,-0.3060823667837307
1788867443233399000,1.11139892578125,0.14477788876891134,-0.5881982766443863,-0.30853761444874106
1788867443243359200,1.121359130859375,0.15998422572910784,-0.6656034052230417,-0.3508054152052849
1788867443253320200,1.1313203125,0.13731062162816524,-0.7294023620471358,-0.3228202241601422
1788867443263280000,1.141280029296875,0.13823358169198036,-0.7455870425201953,-0.3223918426802382
1788867443273240300,1.151240234375,-0.005789104795455933,-0.7379179691970348,-0.3019461254955269
1788867443283200300,1.1612001953125,-0.004824059155583382,-0.7551746628157794,-0.2990696567437611
1788867443293160200,1.17116015625,-0.15119418555200098,-0.5495558998433873,-0.28865751352384683
1788867443303120400,1.181120361328125,-0.16215280193984508,-0.5162102412110194,-0.22465676878364754
1788867443313080300,1.191080322265625,-0.16162965484857558,-0.5276078335380181,-0.2264203443900682
1788867443323040300,1.201040283203125,-0.013739771538972854,-0.4760389743423089,-0.19963532291492447
1788867443333000200,1.211000244140625,-0.013530512702465056,-0.48181470819953826,-0.20318413797030224
1788867443342960400,1.22096044921875,0.13623743943870067,-0.552261834333837,-0.24950990888075902
1788867443352921300,1.23092138671875,0.19784195495843887,-0.6365193495579063,-0.2744325705501251
1788867443362881300,1.24088134765625,0.19796353551149368,-0.639929158001393,-0.2762640602936037
1788867443372841500,1.250841552734375,0.23550094674527644,-0.7256953242227435,-0.3131488711038604
1788867443382801400,1.260801513671875,0.23560966781675813,-0.7282170247200876,-0.3133944068301469
1788867443392761300,1.27076123046875,0.2957178072988987,-0.7976542066268623,-0.31353929519355295
1788867443402721300,1.28072119140625,0.3120096014082432,-0.804580352628231,-0.3445573876611888
1788867443412681200,1.29068115234375,0.3122124305039644,-0.8072134776107966,-0.33971020335834473
1788867443422641200,1.30064111328125,0.17226970680654047,-0.7326134330481291,-0.3602774097645655
1788867443432602000,1.31060205078125,0.17252689643800256,-0.7356893333621323,-0.3527568415340036
1788867443442562300,1.320562255859375,-0.06250292566418647,-0.641989159271121,-0.4097149925526231
1788867443452522200,1.330522216796875,-0.07974807497560978,-0.6225852244906127,-0.3722182055901736
1788867443462482200,1.340482177734375,-0.07973989166915416,-0.6250178584650159,-0.37826603438705203
1788867443472442000,1.350442138671875,0.17351766104102134,-0.6747946466121822,-0.2571830555908382
1788867443482402300,1.36040234375,0.1733662698715925,-0.6777779732719064,-0.27252407004768026
1788867443492362200,1.3703623046875,0.6042728843390941,-0.8270075807526707,-0.1055319565841928
1788867443502322200,1.380322265625,0.755073686659336,-0.9298274653665721,-0.04891169575043022
1788867443512282400,1.390282470703125,0.7549684727191924,-0.933296602781862,-0.05986222016336396
1788867443522242300,1.4002421875,0.796286571535468,-1.0482923706188798,-0.0018723697431385516
1788867443532203300,1.410203369140625,0.7964502376645803,-1.0524359001643955,-0.0020529687407426535
1788867443542163500,1.42016357421875,0.5102063611537218,-1.0263298373967409,-0.047204745702072975
1788867443552123400,1.430123291015625,0.27603695527315136,-1.005283688367158,-0.06567371945371851
1788867443562083300,1.440083251953125,0.04720540328919887,-0.9353778660353272,-0.08611823106203227
1788867443572043300,1.450043212890625,-0.17320669539570807,-0.8378316109754145,-0.11833952530696987
1788867443582003500,1.46000341796875,-0.1726478924691677,-0.8514571815501898,-0.11501507532568647
1788867443591963400,1.46996337890625,-0.47853988777995105,-0.6447641038771719,-0.1319717082856223
1788867443601923300,1.47992333984375,-0.5057154794752597,-0.6122983698844909,-0.09961613840283826
1788867443611883300,1.48988330078125,-0.4924234517037868,-0.6060026672737673,-0.07061994368424639
1788867443621844200,1.49984423828125,-0.4137894754499197,-0.6525820110864937,-0.07255799907473846
1788867443631804200,1.50980419921875,-0.41414311119318004,-0.6528397852398454,-0.08704363881126045
1788867443641764000,1.51976416015625,-0.31514731491208076,-0.7723338874094188,-0.1343447575598955
1788867443651724300,1.529724365234375,-0.3745563662141561,-0.764882329294458,-0.1883520046173595
1788867443661684200,1.539684326171875,-0.4861404259115457,-0.7374481597281992,-0.27166875012628733
1788867443671644200,1.54964404296875,-0.6100432844340801,-0.69318085571751,-0.3047784445783123
1788867443681604400,1.559604248046875,-0.6104881055921316,-0.687643022269383,-0.313618680572696
1788867443691564300,1.569564208984375,-0.6602268267512321,-0.6437612835101783,-0.37475857425536957
1788867443701524200,1.579524169921875,-0.562068065816164,-0.7004987044502049,-0.353938452534005
1788867443711485200,1.589485107421875,-0.45407647765278814,-0.7861953856319188,-0.32572095057033
1788867443721445400,1.5994453125,-0.3689011169314384,-0.9365719711907208,-0.2674639553802088
1788867443731405300,1.6094052734375,-0.3700052787810564,-0.928402693260461,-0.28817488110605627
1788867443741365200,1.619365234375,-0.178878311291337,-0.9642031976990402,-0.19896387166045604
1788867443751325400,1.629325439453125,-0.1629787313699722,-0.8130369230672717,-0.21094686265997586
1788867443761285400,1.639285400390625,-0.3050058601260185,-0.6125357223043217,-0.2539016227673739
1788867443771245300,1.649245361328125,-0.5176391415029764,-0.39414895543456074,-0.29460991912223394
1788867443781205200,1.659205322265625,-0.5166220734149217,-0.4025430550966412,-0.27715708187688143
1788867443791165400,1.66916552734375,-0.7707587470471858,-0.18635796298962085,-0.29726372156664727
1788867443801126100,1.679126220703125,-1.3345891463607549,0.246215744439885,-0.3663821563804522
1788867443811086000,1.689086181640625,-1.5403630633622407,0.4627260133806616,-0.3464757885031402
1788867443821046300,1.69904638671875,-1.539625981259346,0.45655185479037463,-0.3292847805317491
1788867443831006200,1.709006103515625,-1.611566597354412,0.5395769056100398,-0.278963272782322
1788867443840966000,1.7189658203125,-1.1308996344178914,0.7424062935922294,-0.25979511951906603
1788867443850926000,1.728926025390625,-0.7432417945683002,0.6880171162787825,-0.23598321383688597
1788867443860886000,1.738885986328125,-0.25205285309553144,0.526545172742568,-0.16298556296955793
1788867443870846000,1.748845947265625,0.11281973897218704,0.31583880430758,-0.08567187553402036
1788867443880806100,1.75880615234375,0.11024141291677951,0.35611192411556836,-0.10703907321151346
1788867443890767000,1.76876708984375,0.8000713507711887,0.13106350739952177,-0.1375736930111423
1788867443900727000,1.77872705078125,1.0709428861051797,-0.06772599407471716,-0.1511266367411241
1788867443910687200,1.788687255859375,1.1637591169685124,-0.24518311345651744,-0.17116886942517012
1788867443920647200,1.798647216796875,1.1328075138658285,-0.37177360362783074,-0.17561865190826356
1788867443930607000,1.808607177734375,1.131027644711733,-0.332664851424098,-0.15408479242697357
1788867443940567000,1.818567138671875,0.7208107670515775,-0.2925825780130923,-0.2979097643852234
1788867443950527200,1.82852734375,0.6239589970618487,-0.28403905994296075,-0.2737769013866782
1788867443960487200,1.838487060546875,0.6866957314819098,-0.37956886061392725,-0.14137507632179186
1788867443970447000,1.848447021484375,0.8493044604957103,-0.4557773632865399,0.014277221150230616
1788867443980408000,1.858407958984375,0.8458926062256097,-0.4146125553358346,0.02063159514563158
1788867443990368000,1.868367919921875,1.0272469522416592,-0.4729282584432512,0.2488624047574587
1788867444000328000,1.878327880859375,1.0779711773067713,-0.4173251752953976,0.3505830046262592
1788867444010288000,1.8882880859375,1.1635416748255492,-0.4208498422902077,0.44660687242448327
1788867444020248000,1.898248046875,1.1983400164842606,-0.44547918356880545,0.5573921098943799
1788867444030208000,1.9082080078125,1.1975661095023153,-0.4358818455968052,0.5651770281495526
1788867444040168000,1.91816796875,1.1281640719741581,-0.44930283351019024,0.6588827186658978
1788867444050128000,1.9281279296875,0.6655494830787182,-0.2704900617357343,0.5424809564884752
1788867444060088000,1.938088134765625,0.2140396410435438,-0.10860460549518465,0.42696145703829824
1788867444070049000,1.948049072265625,-0.189717685213685,0.041495574275031685,0.4009871674241498
1788867444080009000,1.958009033203125,-0.18678572341501712,0.015847119081765414,0.43282757259272037
1788867444089969200,1.96796923828125,-0.7432990777134895,0.5432989218078553,0.4568775430807844
1788867444099929000,1.97792919921875,-0.7793272534281015,0.7349277013398706,0.5486187285911291
1788867444109889000,1.987888916015625,-0.6676537618815899,0.8437002107478677,0.6275698079701513
1788867444119849200,1.99784912109375,-0.3974000661849975,0.8090307561658322,0.6948682973477989
1788867444129809200,2.00780908203125,-0.3981646208167076,0.815489723046869,0.6762278212204575
1788867444139769000,2.01776904296875,0.3871551510244608,0.30147549404278395,0.7376411980822682
1788867444149729000,2.02772900390625,0.7421025614053011,0.07120645660161971,0.6545842177543789
1788867444159690200,2.037690185546875,1.0178998627036808,-0.18984613389894364,0.5789934451213106
1788867444169650200,2.047650146484375,1.2164368141889572,-0.4060482867386192,0.5135769335653633
1788867444179610000,2.057610107421875,1.2167401810497045,-0.4122266831126064,0.5013680979207158
1788867444189570300,2.0675703125,1.2086498135745525,-0.6448092581931502,0.4918524834154173
1788867444199530200,2.0775302734375,1.041607486027479,-0.5853021533440799,0.4788474193591624
1788867444209490200,2.087490234375,0.8973796323567629,-0.5008488963522016,0.46163372463192787
1788867444219450000,2.0974501953125,0.7526391529887915,-0.46900947756431993,0.47897798693627114
1788867444229410000,2.10741015625,0.7542647083640098,-0.4855806000716984,0.48981085805259644
1788867444239370000,2.117369873046875,0.4921943191230297,-0.46123402125723656,0.3642508069075644
1788867444249331000,2.1273310546875,0.3483575105965137,-0.5167742683019488,0.2936884386294521
1788867444259291100,2.137291015625,0.2786830858677625,-0.5887498826451599,0.2516612782283686
1788867444269251000,2.1472509765625,0.2940384759098291,-0.6431812916651368,0.269663036327064
1788867444279211000,2.1572109375,0.29475276165902614,-0.6509430117078125,0.2770233359619975
1788867444289171200,2.167171142578125,0.3559913664758205,-0.6776561004579067,0.3084433602940291
1788867444299131100,2.177131103515625,0.5046060569286346,-0.7409712923530489,0.3372522157469764
1788867444309091000,2.187091064453125,0.5333136804968118,-0.7995171509545296,0.333083515227586
1788867444319051000,2.197051025390625,0.4438689718931913,-0.8395561697456986,0.3106079909820109
1788867444329011200,2.20701123046875,0.4442746300846338,-0.8422447512425482,0.33445093112327157
1788867444338972200,2.21697216796875,0.0009510171145200729,-0.877345802174881,0.1757221488153562
1788867444348932000,2.22693212890625,-0.24507366173267364,-0.8872226877406238,0.13258358397311532
1788867444358892300,2.236892333984375,-0.3801221836477518,-0.8503356301743537,0.11504188113422133
1788867444368852200,2.246852294921875,-0.5157137263983488,-0.7860727091003209,0.11241585261272266
1788867444378812200,2.256812255859375,-0.5166688351660966,-0.7761485503267497,0.14096096996241247
1788867444388772000,2.266772216796875,-0.7611544678777455,-0.7564662369962781,0.127136424483126
1788867444398732300,2.276732177734375,-0.8337970947623252,-0.7313121411912142,0.12914263147269375
1788867444408692200,2.286692138671875,-0.851483558100462,-0.6704961457006633,0.13290571033325976
1788867444418652200,2.296652099609375,-0.7910895874142646,-0.6401799909573048,0.1826737215189263
1788867444428613000,2.306613037109375,-0.792077429407835,-0.6284734057463706,0.1834667715927586
1788867444438573000,2.316572998046875,-0.5102127908945083,-0.695127898132056,0.3965335490161553
1788867444448533000,2.326532958984375,-0.25996552591621874,-0.8318167346000671,0.595362505717948
1788867444458493000,2.336492919921875,0.09785773216187954,-0.9066782796431332,0.6688233171176164
1788867444468453000,2.346453125,0.2641945417881012,-0.9327071855213492,0.5886676111891865
1788867444478413000,2.3564130859375,0.26373919923603534,-0.9296840383078903,0.6024250645153224
1788867444488373000,2.366373046875,-0.3504594513118267,-0.7638233948260545,0.15818981659300624
1788867444498333200,2.376333251953125,-0.8736275853693485,-0.6268296571273356,0.037950156753137704
1788867444508293000,2.386293212890625,-1.2631290072590111,-0.48193800578564405,0.05323706640256568
1788867444518254000,2.396254150390625,-1.3009212700366972,-0.17400646747127174,0.07001330129429698
1788867444528214300,2.40621435546875,-1.2996207088321448,-0.19255305477008222,0.08066197495013475
1788867444538174200,2.41617431640625,-1.1507435680508613,0.045545799513906235,0.11718730479823425
1788867444548134100,2.426134033203125,-1.1075789645850658,0.18334435078948735,0.19119718318171797
1788867444558094000,2.436093994140625,-1.1381821926414966,0.40401678091101345,0.23079275078801437
1788867444568054300,2.44605419921875,-1.0843541563421488,0.4813821985337883,0.22506374214934183
1788867444578014200,2.45601416015625,-0.7992255475968122,0.49766573627144095,0.3062607920905575
1788867444587974100,2.46597412109375,-0.3468915296971798,0.4798470979209989,0.3973027067577466
1788867444597934000,2.47593408203125,-0.3461316512405872,0.4761080575231462,0.3747634330935776
1788867444607895000,2.48589501953125,0.45310909392535687,0.35248102026730777,0.4569833780754357
1788867444617855000,2.49585498046875,0.7669120084911585,0.288445112882182,0.4246276072632521
1788867444627815000,2.50581494140625,0.7667740613251924,0.29198914216458793,0.41739433154147115
1788867444637775000,2.515775146484375,0.9961129783093928,0.004392024413868784,0.15883595074312762
1788867444647735000,2.525735107421875,0.9957353771686553,0.006329641412943602,0.17263665868910028
1788867444657695000,2.535695068359375,0.5930909805893898,-0.20298326336964964,-0.27977181268623097
1788867444667655000,2.545655029296875,0.25205869831442834,-0.17467954442724584,-0.5151929539272562
1788867444677615000,2.555614990234375,0.2519575760275125,-0.18405702910348773,-0.48404305177349594
1788867444687575000,2.565574951171875,-0.2487088033646345,0.0170453158903867,-0.6767056678652763
1788867444697536000,2.575535888671875,-0.2489274145513773,0.010339096250012517,-0.6541397619225084
1788867444707496200,2.58549609375,-0.27917934495210645,0.34884770526625214,-0.5781493224473669
1788867444717456100,2.5954560546875,-0.13205576983988285,0.47106472959369416,-0.479856158010289
1788867444727416000,2.605416015625,-0.13256138127446174,0.4766100887611508,-0.47643085973672566
1788867444737376300,2.615376220703125,0.3195066791653633,0.5661154415108263,-0.2104299261137843
1788867444747336200,2.625336181640625,0.3188350635141134,0.5746146820478141,-0.20859047225955873
1788867444757296000,2.635296142578125,0.6206237151592969,0.6105050567269324,-0.16979918850716202
1788867444767256000,2.645256103515625,0.6195119545251131,0.6525548308186233,-0.22515118297077713
1788867444777216300,2.65521630859375,0.6182640002906322,0.6597421119742095,-0.20607721079699695
1788867444787176200,2.66517626953125,0.4752607199788093,0.6798411894120275,-0.2714388868931681
1788867444797137000,2.675136962890625,0.2829857514977455,0.7113554678987711,-0.3723124597448855
1788867444807097000,2.68509716796875,-0.11481880383491515,0.671735039845854,-0.484843298773095
1788867444817057000,2.69505712890625,-0.16024024631679057,0.6078957510113716,-0.42808845177423205
1788867444827017000,2.705016845703125,-0.12213584885001182,0.523424666101858,-0.3352754357812926
1788867444836977000,2.714976806640625,0.04007657432258129,0.46912952374741435,-0.21397552629876881
1788867444846938400,2.7249384765625,0.038887656798958774,0.4841960869107395,-0.21530045475959778
1788867444856898300,2.734898193359375,0.47659985962808127,0.3578342909287661,-0.03926573286373168
1788867444866858500,2.7448583984375,0.6826672066181898,0.2929571834791452,0.031727007921971376
1788867444876818400,2.754818359375,0.9363847780555486,0.1625342755381018,0.08554813955649733
1788867444886779400,2.764779296875,1.211140461346507,-0.0015366349827498197,0.1346126877810806
1788867444896739600,2.774739501953125,1.2115741765886545,0.004010331619903445,0.11320994386617093
1788867444906699500,2.784699462890625,1.5234230344772337,-0.34068295738063753,0.14498290982171894
1788867444916659500,2.794659423828125,1.583257617715001,-0.506986083932966,0.08881956244260072
1788867444926619400,2.804619384765625,1.5718816526979207,-0.6834724585864692,0.08936053745150566
1788867444936579600,2.81457958984375,1.4341361467838287,-0.7686093869935721,0.059151459811814126
1788867444946539500,2.82453955078125,1.4347984100848437,-0.7769939151097088,0.061251062439568335
1788867444956499500,2.83449951171875,0.9482640164196491,-0.6883926715929061,-0.018410832089930773
1788867444966460400,2.84446044921875,0.7242150225371122,-0.5657501153297722,-0.07796232406999916
1788867444976420400,2.85442041015625,0.5035977566689253,-0.4435151169542223,-0.1449597846744582
1788867444986380300,2.86438037109375,0.2799070747047663,-0.35764373679272826,-0.21777104612421244
1788867444996340200,2.87434033203125,0.2811398313701153,-0.37522060227654874,-0.2133097558664158
1788867445006300400,2.884300537109375,0.0013216039925813673,-0.37719687078557906,-0.2615004438659176
1788867445016260400,2.89426025390625,-0.033760230782628055,-0.4627363886442035,-0.2661884555516764
1788867445026220300,2.90422021484375,0.04941723411977291,-0.6058742551211267,-0.240307397178933
1788867445036180500,2.914180419921875,0.0502758967757225,-0.6077492552127689,-0.2592651590945199
1788867445046140400,2.924140380859375,0.25875030490756035,-0.7204197949726134,-0.21752631411552428
1788867445056100400,2.934100341796875,0.6046446402609348,-0.8442108636837452,-0.11243826537393033
1788867445066061600,2.9440615234375,0.5781570308297872,-0.9009800680015235,-0.0883306098818779
1788867445076021500,2.954021484375,0.43042555295228957,-0.9417662518981844,-0.11145239614173769
1788867445085981400,2.9639814453125,0.25247955407500267,-0.9643877604857086,-0.12892313436996192
1788867445095941400,2.97394140625,0.25214462303221225,-0.9612493163295089,-0.12603318508211522
1788867445105901600,2.983901611328125,-0.023817513439059256,-1.0332071027550846,-0.17392700902689248
1788867445115861500,2.993861572265625,-0.18552900135219097,-1.0282542295880615,-0.23171529072672128
1788867445125821400,3.003821533203125,-0.348843832808733,-1.0371743258856236,-0.2964735941022634
1788867445135781400,3.013781494140625,-0.566480621561408,-0.9994357660565525,-0.3153481347138062
1788867445145741600,3.023741455078125,-0.5666740983068943,-1.0028252623643725,-0.3026201705658808
1788867445155702300,3.033702392578125,-1.1049474470376968,-0.7495425021477043,-0.3530835162051022
1788867445165662200,3.043662109375,-1.3134978430151938,-0.5919287318769842,-0.3464531017472967
1788867445175622400,3.053622314453125,-1.454217980825901,-0.4787944470629096,-0.322341537265107
1788867445185582300,3.063582275390625,-1.4846364999651909,-0.4123474599480629,-0.26431305360123514
1788867445195542300,3.073542236328125,-1.4840005401492118,-0.4121353515673429,-0.28187680387515573
1788867445205502500,3.08350244140625,-1.0672890397727488,-0.3765545542940497,-0.09855557823292911
1788867445215462400,3.09346240234375,-0.7279816815942526,-0.44440190972611304,-0.018722564920224248
1788867445225422300,3.10342236328125,-0.4210767098486423,-0.5722284444984048,0.0534464713695459
1788867445235382300,3.11338232421875,-0.1460918939769268,-0.7363960933919995,0.1089853667073883
1788867445245343500,3.123343505859375,-0.1462871242880821,-0.7239468000549822,0.07055089703602715
1788867445255303400,3.133303466796875,0.3226613438040018,-1.1009672913603483,0.1758755492787808
1788867445265263400,3.143263427734375,0.48451428601443763,-1.2106702134862541,0.17588124836720526
1788867445275223600,3.1532236328125,0.5459288319200277,-1.227548575311899,0.08043254097527824
1788867445285183500,3.16318359375,0.5459259093105793,-1.2254184314154088,0.055478936178376896
1788867445295143400,3.173143310546875,0.5003998374104499,-1.1855382564477621,-0.08163894848981872
1788867445305103400,3.183103271484375,-0.032950667965412135,-1.0592861313853412,-0.2247357340376824
1788867445315063600,3.1930634765625,-0.41327275809943675,-0.9023394467212259,-0.2224923024924472
1788867445325023500,3.2030234375,-0.7623404627919197,-0.7725033256921917,-0.1538186705703847
1788867445334984200,3.212984130859375,-0.9550678512156009,-0.6176793322704732,-0.09186149655492044
1788867445344944400,3.2229443359375,-0.954357072597742,-0.6266311388805508,-0.09651938709705137
1788867445354904300,3.232904296875,-1.0584592521071434,-0.22861973586417733,-0.11159301932197994
1788867445364864300,3.2428642578125,-1.0550807155847548,0.11639847424179314,-0.3770637093925848
1788867445374824200,3.25282421875,-1.1388216595888137,0.42068113465979695,-0.5925470464384183
1788867445384784400,3.262784423828125,-1.5491478428423404,0.6575182253796606,-0.7144909894455224
1788867445394744300,3.272744384765625,-1.5485042842417955,0.644836949917674,-0.6795752319522201
1788867445404704300,3.282704345703125,-2.60114286737144,1.3850477062270043,-0.5415450638778507
1788867445414664400,3.29266455078125,-2.471437460049987,1.7236149135626853,-0.28035129307461903
1788867445424625400,3.30262548828125,-1.882812811219692,1.8671923405006527,0.019737578048510476
1788867445434585300,3.31258544921875,-0.9820359376400709,1.6842565705120562,0.36323804966844614
1788867445444545500,3.322545654296875,-0.9867372471988201,1.7420894585385918,0.291863013300579
1788867445454505500,3.33250537109375,0.6992401557564735,1.1031970962390303,0.6209991243429481
1788867445464465400,3.34246533203125,1.4423673840343951,0.7379384274631738,0.6399187827378511
1788867445474425300,3.35242529296875,2.017848473653197,0.43774683575108647,0.5657818987075239
1788867445484385500,3.362385498046875,2.0108985083848236,0.4839142742946744,0.5027116580167785
1788867445494345500,3.372345458984375,2.3612825563728808,0.12880064050145446,0.4531263007884845
1788867445504305400,3.382305419921875,2.303895950809121,-0.42011129888258875,0.5448352645296604
1788867445514266400,3.392266357421875,1.8861060075461864,-0.39964207295812665,0.48283389517944303
1788867445524226300,3.402226318359375,1.0556921254813671,-0.009939502473175526,0.21895894073452798
1788867445534186200,3.412186279296875,0.2877040121912956,0.4127811021249741,0.01336459981733933
1788867445544146200,3.422146240234375,0.29148060812056065,0.3900177008487284,0.06921172085413708
1788867445554106400,3.4321064453125,-0.5806020858943463,0.904568959338963,-0.025220302042225376
1788867445564066300,3.44206640625,-0.788479697176814,1.0232096595495939,0.08022933742022141
1788867445574026200,3.452026123046875,-0.7068389403223991,1.2010676878824829,0.15933971728049218
1788867445583986200,3.461986083984375,-0.4998083012580871,1.357944595246017,0.22972966986745594
1788867445593946400,3.4719462890625,-0.4997089325368404,1.3555468864545226,0.21612572660259902
1788867445603907300,3.4819072265625,0.13022913893461227,1.1881709430389105,0.25002419681213794
1788867445613867300,3.4918671875,0.12895488121509552,1.1953525251060724,0.2156198959723115
1788867445623827500,3.501827392578125,0.918190949717164,0.5032241741161794,0.20471238871719688
1788867445633787400,3.511787353515625,1.2782868289023637,0.22052147734351454,0.19905109328618273
1788867445643747300,3.521747314453125,1.2762497701168058,0.23049868147857486,0.1630769127811305
1788867445653707500,3.53170751953125,1.7158336120367048,-0.20764256041757762,0.09318948462251574
1788867445663667500,3.54166748046875,1.7646400207817554,-0.4105124996058643,0.09336973656024783
1788867445673627400,3.55162744140625,1.7303122192442417,-0.5144309931114316,0.07739427839107811
1788867445683587300,3.56158740234375,1.3665543104201554,-0.42010377316325903,-0.0038739188238978385
1788867445693548500,3.571548583984375,1.36874626750648,-0.4342022219467908,0.018292685602977872
1788867445703508500,3.581508544921875,0.3868658126890659,-0.09977890948280692,-0.10351767588602379
1788867445713468400,3.591468505859375,0.010574000984430312,-0.003630100130662322,-0.06776742206364869
1788867445723428600,3.6014287109375,-0.2091021846413612,0.12910817208066583,0.017147753351554273
1788867445733388500,3.611388427734375,-0.2575473588585853,0.24786504601687193,0.07694574917228891
1788867445743348500,3.621348388671875,-0.2568517778098583,0.24069391227848827,0.07667917065797374
1788867445753308400,3.631308349609375,0.05303484009504318,0.17920885841995476,0.23892089299028738
1788867445763268400,3.641268310546875,0.37501229328811164,0.006623290597274899,0.32224275306575
1788867445773228300,3.651228271484375,0.6073860479235649,-0.14848010428771377,0.34766711717955767
1788867445783189200,3.661189208984375,0.7231652212232351,-0.3453512414526194,0.3798598794497549
1788867445793149400,3.6711494140625,0.7219692894369364,-0.3325372064564377,0.3833836696617305
1788867445803109400,3.681109375,0.6800169843703509,-0.6760088447075336,0.4627872420486063
1788867445813069300,3.6910693359375,0.6793605662882327,-0.664672261852771,0.4846368164155632
1788867445823029200,3.701029296875,0.18288111719191072,-0.6990203755259513,0.3208560844803229
1788867445832989400,3.710989501953125,-0.11915946338772773,-0.6925133317194878,0.2841465206391178
1788867445842949400,3.720949462890625,-0.12038637483417987,-0.6764661600209773,0.3190571087669581
1788867445852908300,3.730908203125,-0.5882593226492404,-0.6720603993427008,0.2059035347305238
1788867445862868200,3.7408681640625,-0.5901297926962376,-0.653159153387323,0.23678187166759743
1788867445872829400,3.750829345703125,-0.9809767839759588,-0.7686720039010048,0.18804682939201592
1788867445882789400,3.760789306640625,-1.0061848749905824,-0.8403392829474061,0.21902004153830928
1788867445892749300,3.770749267578125,-1.0082207647323609,-0.8228281031109392,0.22285304382992907
1788867445902709200,3.780709228515625,-0.6640221273809671,-0.9537121988229453,0.31471685107294467
1788867445912669400,3.79066943359375,-0.6654828475832939,-0.9416557041957974,0.30631339906062927
1788867445922629400,3.80062939453125,-0.24127193136215208,-1.1147679262410848,0.5048278099205344
1788867445932589300,3.81058935546875,-0.10712474220097064,-1.0716530071359127,0.465194778114371
1788867445942549500,3.820549560546875,-0.10661036293804645,-1.0756466068167239,0.47407056034617123
1788867445952509400,3.830509521484375,-0.6547025103718042,-0.5218219070803374,0.04891636735897045
1788867445962470400,3.840470458984375,-0.6532254235565662,-0.5343500378072261,0.07629115772107616
1788867445972430600,3.8504306640625,-1.7156933267831802,0.008596928757801651,-0.0995637506284751
1788867445982390500,3.860390625,-1.823468641847372,0.122608288667351,0.022981829799897966
1788867445992350500,3.8703505859375,-1.822806378546357,0.11664170841313898,0.027875775853917
1788867446002310400,3.880310302734375,-1.4245020569980145,0.5094551774602383,0.07204262886454817
1788867446012270300,3.890270263671875,-1.4241414069920777,0.5064840526949614,0.06927963042461778
1788867446022230300,3.900230224609375,-1.189392739918828,0.5898836359154432,0.0013308467449620366
1788867446032190200,3.910190185546875,-1.1689081702947617,0.652561698950827,-0.0654807952640811
1788867446042150100,3.920150146484375,-1.1686638401448726,0.6510732139587402,-0.08510776624470018
1788867446052111400,3.930111328125,-0.5739291840016841,0.6306059607956558,0.046280593761592166
1788867446062071300,3.9400712890625,-0.5749105962544679,0.6382472693290561,0.005354700000141747
1788867446072031200,3.95003125,0.5424024113595486,0.6018355011243373,0.30983149018418044
1788867446081991400,3.959991455078125,1.072718079084158,0.5688656900670379,0.3428552599184215
1788867446091951400,3.969951416015625,1.506768252274394,0.4925936206389218,0.36002646721079945
1788867446101911300,3.979911376953125,1.8144108906447887,0.3249905174039304,0.4171825519543141
1788867446111871200,3.989871337890625,1.8095558518290518,0.35901334464550017,0.39443515196479856
1788867446121831400,3.99983154296875,2.0468857675671575,-0.04222220804914832,0.3688292938042432
1788867446131791400,4.009791259765625,1.8872382264465093,-0.07566182857528328,0.2215489024288021
1788867446141752300,4.01975244140625,1.884344258570671,-0.05033186474665999,0.24610028310036286
1788867446151712500,4.02971240234375,1.0793091479122638,-0.04259966305941343,-0.14978011750299483
1788867446161672400,4.03967236328125,1.0771300503075123,-0.02324438972622156,-0.11678373809917829
1788867446171632400,4.04963232421875,0.5123012876063585,-0.06804667739644646,-0.30953035181313754
1788867446181592600,4.059592529296875,0.41591713512837886,-0.05640826205089688,-0.3912032208388671
1788867446191552500,4.069552490234375,0.35770693822205063,0.027632687813043594,-0.45578196639642116
1788867446201512400,4.079512451171875,0.3099988461077213,0.16778423195555806,-0.4757374706450849
1788867446211472400,4.089472412109375,0.3111515232741833,0.16046075719967484,-0.46035504646562037
1788867446221432300,4.099432373046875,-0.07294716278910636,0.4502545812770724,-0.4995392019931227
1788867446231393300,4.109393310546875,-0.40348669262230397,0.6387669823542237,-0.45635633221827443
1788867446241353200,4.119353271484375,-0.7221370472192764,0.823249105001986,-0.35870756663195785
1788867446251313400,4.1293134765625,-0.9401151967555283,1.1033055250495671,-0.2334419501225464
1788867446261273300,4.1392734375,-0.936169674000144,1.073005809984356,-0.21716887897998094
1788867446271233300,4.1492333984375,-1.2147720958471298,1.5559652677722275,-0.021291538625396785
1788867446281193200,4.159193115234375,-1.039669795963168,1.6768253975979983,-0.019783723311754875
1788867446291153400,4.1691533203125,-0.6164443836480379,1.5791392226107417,-0.07097932418170384
1788867446301113300,4.17911328125,0.11084113237559795,1.1386958412520587,0.02632342956209322
1788867446311073300,4.1890732421875,0.10690203936100005,1.167318270754814,-0.016363324975594878
1788867446321034500,4.199034423828125,1.2366957583636045,0.26100305227041243,-0.03564411743362434
1788867446330994400,4.208994384765625,1.465337340733409,-0.06605623423159122,-0.15736081842295824
1788867446340954400,4.218954345703125,1.6271885293781756,-0.43636137274205683,-0.19620132987825198
1788867446350914300,4.228914306640625,1.7316829230755566,-0.7819228228792547,-0.18718224845193326
1788867446360874500,4.23887451171875,1.728247103407979,-0.7612548595122992,-0.2057977910674177
1788867446370834400,4.24883447265625,1.7788468253105878,-1.0196423224568367,-0.19551800552289933
1788867446380794400,4.25879443359375,1.643631714656949,-0.9606481355659663,-0.22768680239561945
1788867446390754600,4.268754638671875,1.434471077826619,-0.8115285643309355,-0.2592106341619976
1788867446400714500,4.278714599609375,1.1715975555092095,-0.6142468736037612,-0.302950863824971
1788867446410675200,4.28867529296875,1.1744044296234846,-0.6323566769205033,-0.29711517994143066
1788867446420635400,4.298635498046875,0.62983110396564,-0.2531906249538064,-0.3798056650444865
1788867446430595300,4.30859521484375,0.43766836368739603,-0.16865823831111193,-0.35073943729698653
1788867446440555300,4.31855517578125,0.3326777109056711,-0.11718816331475973,-0.2634467008291744
1788867446450515200,4.32851513671875,0.3840203601300716,-0.1175984976813197,-0.1504928323496133
1788867446460475400,4.338475341796875,0.3849871593356132,-0.1275641575090587,-0.16811881593847647
1788867446470435300,4.348435302734375,0.6793775174230336,-0.12910641851499677,-0.00011381737170740961
1788867446480395300,4.358395263671875,0.7435767256110906,-0.22744038988649845,-0.012321465706266462
1788867446490355200,4.368355224609375,0.7618406965762377,-0.39724560627564787,-0.04267667381837964
1788867446500316400,4.37831640625,0.6144587627887725,-0.5957412028372288,-0.14248815213022753
1788867446510276400,4.3882763671875,0.6136036072641611,-0.5888796465046704,-0.13907087276633828
1788867446520236300,4.398236328125,0.27036124772429465,-0.9113434219099581,-0.3642987742351368
1788867446530196500,4.408196533203125,0.1317436351507902,-0.9658657240837812,-0.4677596966989338
1788867446540156400,4.418156494140625,-0.08028057441711425,-1.0104875406205653,-0.609551445796527
1788867446550116400,4.428116455078125,-0.3333960883080959,-0.9657460432268679,-0.7725343784175813
1788867446560076300,4.438076171875,-0.33075288032293315,-0.9813609609879552,-0.7514712782531976
1788867446570036500,4.448036376953125,-0.9817699801802635,-0.749225983544439,-0.8372312339294702
1788867446579996400,4.457996337890625,-1.3449644099026918,-0.6038809624120592,-0.815073835722357
1788867446589957000,4.46795703125,-1.656895685377717,-0.3334741219803691,-0.7814486294962465
1788867446599917300,4.477917236328125,-1.7937521334975957,-0.0681022069759667,-0.7540867945138364
1788867446609877200,4.487877197265625,-1.793563332927227,-0.06990779509320855,-0.7573191274985671
1788867446619837200,4.497837158203125,-1.542268604722619,0.20913082621395587,-0.5327038049701601
1788867446629797400,4.50779736328125,-1.155274197217822,0.1424247497715056,-0.4261969754718244
1788867446639757300,4.51775732421875,-0.7552730086237192,-0.06514364943131803,-0.35103568029720333
1788867446649717200,4.52771728515625,-0.49313247675597666,-0.32677710855975745,-0.26606123070912435
1788867446659677200,4.53767724609375,-0.4967728790849447,-0.30811683175340293,-0.3037048057311214
1788867446669637400,4.547637451171875,-0.3063829936981201,-0.8715048941269516,-0.10142302342802285
1788867446679598300,4.557598388671875,-0.14313129060566424,-0.995729385819286,-0.11721176338605582
1788867446689558300,4.567558349609375,-0.17307751605808733,-1.0564159097112715,-0.16492431247979403
1788867446699518500,4.5775185546875,-0.4753577506124973,-0.9806032744884491,-0.1995650524239987
1788867446709478400,4.587478515625,-0.47332010730504986,-0.995898166514933,-0.20176234327256679
1788867446719438300,4.597438232421875,-1.3665186545848846,-0.4585775884643197,-0.166434315183945
1788867446729398300,4.607398193359375,-1.5846446881592273,-0.13006649571880696,-0.1287537326198071
1788867446739358500,4.6173583984375,-1.7348831804215907,0.26130641913115976,-0.10333430040944366
1788867446749318400,4.627318359375,-1.9422855754077433,0.6700497171074151,-0.1420696161909029
1788867446759278300,4.6372783203125,-1.938940356633067,0.6514493537947535,-0.11739143080189823
1788867446769239600,4.647239501953125,-2.6803648726463316,1.354132343481481,-0.21616927348338066
1788867446779199500,4.657199462890625,-2.988692570671439,1.61746383869946,-0.25020382769536226
1788867446789159400,4.667159423828125,-3.0415269197583195,1.85194640218243,-0.27884505323013287
1788867446799119400,4.677119384765625,-2.6363077042549845,1.9811746935114263,-0.21742444290993734
1788867446809079300,4.687079345703125,-2.642053554430604,2.0166836676575244,-0.252480357792601
1788867446819039200,4.697039306640625,-0.715589817532897,1.7557113027863203,0.22994579683616756
1788867446828999200,4.706999267578125,0.3759036891698837,1.4283750990390778,0.35572296133060005
1788867446838959400,4.71695947265625,1.4263368712097406,0.9781000594958662,0.3706462070330977
1788867446848919000,4.7269189453125,2.3086112888932226,0.5147657780237496,0.3665221859056502
1788867446858880300,4.73688037109375,2.2886785079330205,0.5934893322572111,0.27280783715881407
1788867446868840200,4.746840087890625,3.774695648601651,-0.3377947616584599,0.46101314504817126
1788867446878800100,4.756800048828125,4.103099919971823,-0.754281074976921,0.6014218788221478
1788867446888760300,4.76676025390625,4.014169590631127,-0.9120369571320712,0.6626468935050069
1788867446898720300,4.77672021484375,3.6489100450724363,-0.9612193595826626,0.6616440731380134
1788867446908680200,4.78668017578125,3.6543192106395956,-0.9618066579513251,0.7220400896508247
1788867446918640000,4.79664013671875,1.7666572058230638,-0.05189268432259559,0.2304942975644022
1788867446928600300,4.806600341796875,0.9308744902014732,0.22445304463878274,0.167508337623626
1788867446938560300,4.816560302734375,0.2491922029674053,0.569920679012686,0.07055778343454003
1788867446948521200,4.826521240234375,-0.3215186035096645,0.834689075165987,0.07163421702701599
1788867446958481400,4.8364814453125,-0.31271862646043297,0.8047736832432448,0.15781579564884304
1788867446968441300,4.84644140625,-1.103613568085432,1.332323977907747,0.11855804516216739
1788867446978401300,4.8564013671875,-1.3530816653847693,1.5086378455385565,0.04907912473920732
1788867446988361200,4.866361328125,-1.5133213271796702,1.5984005340501666,0.017440343089960515
1788867446998321400,4.8763212890625,-1.515470029646158,1.6278751964680849,-0.049115419895295054
1788867447008281300,4.88628125,-1.5143880796283482,1.6217799483329056,-0.04443552758391015
1788867447018241300,4.8962412109375,-0.9983914446353912,1.3673939761146903,-0.09512096414174884
1788867447028201200,4.906201171875,-0.4905851303607225,1.062188940154761,-0.06659930986603721
1788867447038162200,4.916162109375,0.03458323760330677,0.7822884413212537,-0.10730446441574022
1788867447048122000,4.9261220703125,0.41509295926392076,0.5799953521728515,-0.18875897798305377
1788867447058082300,4.936082275390625,0.409161815649271,0.6106204998001455,-0.21253833310250192
1788867447068042200,4.946042236328125,0.8401414953529834,0.14987418899461627,-0.23612700622174887
1788867447078002200,4.956002197265625,0.9446206914812326,0.07531564548611641,-0.3107238359140232
1788867447087962000,4.965962158203125,1.0227098933339118,-0.023369331280142066,-0.33376539654452353
1788867447097922300,4.97592236328125,1.0343296039789915,-0.151179280243814,-0.33577279084417966
1788867447107882200,4.98588232421875,1.02838267827332,-0.12247779415547846,-0.34916955763176083
1788867447117842200,4.99584228515625,1.047324110108614,-0.38201574230939145,-0.3223747088823467
1788867447127803400,5.005803466796875,1.0427145704865455,-0.36208033100068565,-0.3408703697115183
1788867447137763300,5.015763427734375,1.1375590923070906,-0.5594447315752505,-0.2944842834485695
1788867447147723300,5.02572314453125,1.1990841128498315,-0.627099048653245,-0.24449476586617527
1788867447157683200,5.03568310546875,1.1969319032520056,-0.621055530705303,-0.26578257816452533
1788867447167643400,5.045643310546875,1.2635522011071443,-0.6785029265455901,-0.09243888545092195
1788867447177603300,5.055603271484375,1.2633067019134758,-0.6792131206415594,-0.10067004963625222
1788867447187563300,5.065563232421875,0.7872633071243762,-0.4769800911173224,-0.09148903738018124
1788867447197523200,5.075523193359375,0.45350423072278495,-0.3972000135682523,-0.07161711976174265
1788867447207483400,5.0854833984375,0.4534206440925598,-0.39556013740673657,-0.06639858139585703
1788867447217444000,5.095444091796875,0.03767711196541786,-0.3113692576780915,-0.05010517985131591
1788867447227404000,5.105404052734375,0.03739186528325081,-0.3088569825962186,-0.04528787923008203
1788867447237364200,5.1153642578125,-0.19782967999875545,-0.21323796927183866,-0.10710231117345392
1788867447247324200,5.12532421875,-0.3482318383902311,-0.20680925139859319,-0.1438318035578355
1788867447257284000,5.1352841796875,-0.3473842816501856,-0.21046207481771706,-0.14136789766233412
1788867447267244300,5.145244384765625,-0.7125806988447905,-0.12944661025479434,-0.16279855249747632
1788867447277204200,5.155204345703125,-0.7117746431589126,-0.13459464066773652,-0.1678513423750177
1788867447287164200,5.1651640625,-0.8216051371872425,-0.0382329922825098,-0.09165854872819036
1788867447297124000,5.1751240234375,-0.67796706610322,-0.12559329582750797,-0.05681841375436633
1788867447307085300,5.185085205078125,-0.6797054342031479,-0.12193375040665268,-0.0772294066855684
1788867447317045200,5.195045166015625,-0.12884089944660662,-0.35728038337305185,-0.04906104109324515
1788867447327005200,5.205005126953125,-0.13160977963805198,-0.34832521576210856,-0.06705138274878263
1788867447336965400,5.21496533203125,0.158971249294281,-0.5464760905392467,-0.1738866039512679
1788867447346925300,5.22492529296875,0.15881693551540374,-0.5866743915453553,-0.2162268854221329
1788867447356885200,5.23488525390625,0.15678572194874285,-0.5782805110789835,-0.22169015579670667
1788867447366845200,5.24484521484375,0.04509352570176124,-0.47470922357589,-0.3213336753968149
1788867447376805400,5.254805419921875,0.04323357704877853,-0.46772418699413537,-0.3284996580360457
1788867447386765300,5.264765380859375,0.12165537185668944,-0.5378041237838566,-0.3676331062896177
1788867447396726000,5.27472607421875,0.20238602812886236,-0.6275631590336561,-0.3886331146225333
1788867447406686200,5.284686279296875,0.20089082113504408,-0.6255608793005347,-0.4060052878471091
1788867447416646100,5.294646240234375,0.5257739326417445,-0.6622055794782936,-0.4754522239629179
1788867447426606000,5.304606201171875,0.5252724128603935,-0.6652307725183665,-0.49264447404332457
1788867447436566000,5.31456591796875,0.7346358787864447,-0.7707090626865625,-0.5409993396285921
1788867447446526200,5.324526123046875,0.6426689582288265,-0.8036876415722072,-0.6682240360502153
1788867447456486100,5.334486083984375,0.6442898374289274,-0.812476951096952,-0.6709748691283166
1788867447466446000,5.344446044921875,0.32800855005085466,-0.7608090154409408,-0.9276742328554392
1788867447476406300,5.35440625,0.3295978650689125,-0.7683622072994709,-0.9269865428522228
1788867447486367200,5.3643671875,0.0038011458486318585,-0.48765682182386516,-1.1516394939772785
1788867447496327200,5.3743271484375,-0.06422375810742378,-0.4094567069426179,-1.229236674529314
1788867447506287400,5.384287353515625,-0.06478665268719196,-0.41072585009559986,-1.240875966657698
1788867447516247300,5.394247314453125,0.0206610952347517,-0.29930954818055033,-1.2403947590120137
1788867447526207200,5.404207275390625,0.017703998994827268,-0.29356077539548275,-1.2645198770955204
1788867447536167200,5.414167236328125,0.18105916246175766,-0.5986446691937745,-0.9806140881434082
1788867447546127400,5.42412744140625,0.36581484135389325,-0.7499383695974946,-1.044287445826456
1788867447556087300,5.43408740234375,0.6048720192760229,-1.095442390459031,-1.0210286622487008
1788867447566047200,5.444047119140625,1.131430380293727,-1.1133727455556393,-1.2843559196829795
1788867447576008200,5.45400830078125,1.1345219165682792,-1.1260996867902577,-1.279283730985224
1788867447585968000,5.463968017578125,0.820046801829338,-0.4212589345477521,-2.178669004075974
1788867447595928300,5.47392822265625,-0.6229127028793097,0.2781846348263323,-2.9178476408585903
1788867447605888300,5.48388818359375,-1.9890116707473993,0.9453840770691633,-3.1284888716354966
1788867447615848200,5.49384814453125,-3.1943478297293186,1.760874092376977,-3.042848816011846
1788867447625808100,5.50380810546875,-3.178869105568528,1.6945972011320292,-2.956784397496283
1788867447635768000,5.51376806640625,-3.834071382156014,3.39621246433258,-2.2618816864222286
1788867447645728000,5.52372802734375,-3.004050883322954,3.716879127188027,-1.6684087207779288
1788867447655688200,5.533688232421875,-1.7748972109019756,3.4893501822352406,-1.1154939754933118
1788867447665649200,5.543649169921875,-0.6840542770624161,2.9888930616796014,-0.8249822124049067
1788867447675609000,5.553609130859375,-0.6888450184702872,3.0007068335920573,-0.8814608362782747
1788867447685569300,5.5635693359375,0.7907616706341505,1.7839868185475467,-0.8756710738956928
1788867447695529200,5.573529296875,1.2956968133866786,1.2627074208460747,-1.0526473509579897
1788867447705489200,5.5834892578125,1.2895762846797705,0.9430259696356952,-1.253665451734513
1788867447715449300,5.593449462890625,0.8654115456879139,1.0021182100735604,-1.5939267496369778
1788867447725409300,5.6034091796875,0.8747048592120409,0.9640301792196929,-1.5310177273899317
1788867447735369200,5.613369140625,-0.2902262241452932,1.2436731961607932,-1.9301098383150994
1788867447745330400,5.623330322265625,-0.7892302232831716,1.3390885036066174,-1.953667531774193
1788867447755290400,5.633290283203125,-1.2408458637803792,1.4375995851106942,-1.9415115222953259
1788867447765250300,5.643250244140625,-1.5555460194468498,1.6029977987125514,-1.947606039778143
1788867447775210200,5.653210205078125,-1.5549714344292878,1.604101083779335,-1.8818765532828867
1788867447785170400,5.66317041015625,-1.8420318880200386,1.9014238420568406,-1.82480573567003
1788867447795130400,5.67313037109375,-1.7135002006530762,1.971391258382797,-1.7000800164572893
1788867447805090300,5.68309033203125,-1.4695792160868644,1.9299150463953614,-1.5536442774787544
1788867447815050200,5.69305029296875,-1.0978794083476067,1.8222447991408406,-1.3812705257758497
1788867447825010200,5.70301025390625,-1.0975941616654394,1.8204397955454885,-1.388320590417832
1788867447834971100,5.71297119140625,-0.3589028700083494,1.722168952538073,-1.1995255730070173
1788867447844931600,5.722931640625,0.008980594313144684,1.5754009128652513,-1.114673379825428
1788867447854891500,5.7328916015625,0.36236382411718365,1.4046514013633131,-1.0261110070142894
1788867447864851500,5.7428515625,0.5903273610949515,1.2743060887031257,-0.9813652718368917
1788867447874811400,5.752811279296875,0.5873731874644756,1.2929745488159359,-0.9949764485601336
1788867447884771600,5.762771484375,0.9827087223351001,0.8753425725936889,-0.8516850720219313
1788867447894731500,5.7727314453125,1.1029822844445705,0.7356641989208758,-0.7921372698362916
1788867447904691500,5.78269140625,1.2332792279183864,0.6753248810313641,-0.7114798979960382
1788867447914651600,5.792651611328125,1.369391579672694,0.6610663463152945,-0.6464858131032437
1788867447924611600,5.802611572265625,1.367972360524535,0.6699087012015282,-0.6427613857526332
1788867447934572500,5.812572509765625,1.1167068584144115,0.5088027779661118,-0.5720024171901866
1788867447944532700,5.82253271484375,0.797431649917364,0.5097245689861476,-0.5742903089316561
1788867447954492700,5.83249267578125,0.49491000782251354,0.5380556143268943,-0.5548141126325353
1788867447964452600,5.84245263671875,0.3116588882744312,0.4901961310431361,-0.5281497949276119
1788867447974412500,5.85241259765625,0.314352365142107,0.47339755645543335,-0.5273947387766093
1788867447984372700,5.862372802734375,0.18127134390771388,0.36620091806203126,-0.4474912540435791
1788867447994332700,5.872332763671875,0.24942250459194182,0.3155198014862835,-0.38296138912905003
1788867448004292600,5.882292724609375,0.3737935651481151,0.2020535813041031,-0.2449722106521949
1788867448014252500,5.89225244140625,0.5667950943380594,0.1389535665296018,-0.07807127347034402
1788867448024213500,5.902213623046875,0.5683189429044723,0.12652896924242377,-0.10699243019134737
1788867448034173400,5.91217333984375,0.8997674042761326,0.21213322290033101,0.0985568568745628
1788867448044133400,5.92213330078125,0.9483540327906608,0.08591945708692074,0.1978874380679801
1788867448054093600,5.932093505859375,0.9687994394481182,-0.09421484561488032,0.26177748897532
1788867448064053500,5.942053466796875,1.004695513215661,-0.3270224616229534,0.318773907911405
1788867448074013400,5.952013427734375,1.0063473720759153,-0.3424778049081564,0.2961306624161079
1788867448083973400,5.961973388671875,0.9220043705254792,-0.5013438402622938,0.26053450317690147
1788867448093933600,5.97193359375,0.8812474127233028,-0.6081519177295267,0.27279490461200473
1788867448103893500,5.9818935546875,0.8021271142572164,-0.6122584762655198,0.25860852181669325
1788867448113854500,5.9918544921875,0.6947656406909227,-0.521607606742531,0.27144820271078496
1788867448123814700,6.001814697265625,0.6986153018563985,-0.5536905519627034,0.25944643394555894
1788867448133774600,6.011774658203125,0.472004933053255,-0.4171927080221474,0.3502263732083142
1788867448143734500,6.021734619140625,0.30544834319651126,-0.40336182413361965,0.3748094641923904
1788867448153694700,6.03169482421875,0.18507541236579417,-0.47892121524773534,0.433748632960394
1788867448163654700,6.041654541015625,0.3035042233914137,-0.5941534221891314,0.5615252276437357
1788867448173614600,6.051614501953125,0.3051893999993801,-0.6120640496719628,0.550548016153276
1788867448183574500,6.061574462890625,0.5570581286996603,-0.7511201997932047,0.6720522891014814
1788867448193535500,6.071535400390625,0.4404232153534889,-0.7979233058918267,0.6086897509332746
1788867448203495400,6.081495361328125,0.2132809316307306,-0.9318578021503985,0.5090152151403948
1788867448213455400,6.091455322265625,-0.16453998933732508,-0.9382114089608192,0.334566483794339
1788867448223415600,6.10141552734375,-0.16149930646717547,-0.9619999155011028,0.34599206010680644
1788867448233375500,6.11137548828125,-0.5762590882539749,-0.9156163499888033,0.26403025460448115
1788867448243335400,6.12133544921875,-0.6914519860982894,-0.8039919582810252,0.26474706110432744
1788867448253295400,6.13129541015625,-0.6003296996712685,-0.7016746894270182,0.30014610860254615
1788867448263255600,6.141255615234375,-0.4361310711175203,-0.7309657389063388,0.39109997966010124
1788867448273215500,6.151215576171875,-0.43605508327186104,-0.7379047443892807,0.3758800525659695
1788867448283176400,6.161176513671875,-0.03793313255310058,-0.9274388897296041,0.3865593405557796
1788867448293136600,6.17113671875,0.054900633966922754,-0.9734546448428183,0.2663832474714145
1788867448303096600,6.1810966796875,-0.05391980623602867,-0.9194972830753773,0.08954404079224913
1788867448313056500,6.191056396484375,-0.23632336904406545,-0.8317423541896045,-0.13915383834205566
1788867448323016400,6.201016357421875,-0.23634382731020448,-0.8314311693485825,-0.1389320488175377
1788867448332976600,6.2109765625,-0.5073281753689051,-0.6011608897984028,-0.46947804492413997
1788867448342936600,6.2209365234375,-0.5080307706803083,-0.5954756837688386,-0.4725928159438073
1788867448352896500,6.230896484375,-0.6135434015095234,-0.5907979012161493,-0.7041378646701574
1788867448362856700,6.240856689453125,-0.5899655420452355,-0.6549151302091777,-0.7241990943156182
1788867448372817400,6.2508173828125,-0.5920633911073208,-0.6458103980597109,-0.7483313727922737
1788867448382777300,6.26077734375,-0.2212152317613363,-0.6034838528532535,-0.5159149115262552
1788867448392737500,6.270737548828125,0.062433952081203455,-0.5160769336875528,-0.2852768946422264
1788867448402697500,6.280697509765625,0.33716333188712594,-0.45406573706306513,-0.07856438161637634
1788867448412657400,6.290657470703125,0.29645138227045537,-0.47456616184338923,0.0535041381072253
1788867448422617300,6.300617431640625,0.29550621037483216,-0.469066687644273,0.04754435291998088
1788867448432577500,6.31057763671875,-0.41788755841851233,-0.6630206221882253,0.12931286433991043
1788867448442537500,6.320537353515625,-1.0009779539972543,-0.5567719321694224,0.05917747103590518
1788867448452497400,6.330497314453125,-1.6512813526272774,-0.465467201847583,-0.0791493784300983
1788867448462458600,6.340458740234375,-2.1944980029791594,-0.39669104113280773,-0.2489709248995408
1788867448472418600,6.35041845703125,-2.1899504226773976,-0.4294399759810418,-0.22653573266435414
1788867448482378500,6.36037841796875,-3.031578941717744,0.03628507308512926,-0.5718021453777328
1788867448492338400,6.37033837890625,-3.0263270125389097,-0.008171177626401186,-0.5493511710515245
1788867448502298600,6.380298583984375,-3.373281670600176,0.6387997886452823,-0.56829179916922
1788867448512258600,6.390258544921875,-3.166877054479718,1.094012503786385,-0.5245832980850711
1788867448522218500,6.400218505859375,-3.1677129207819696,1.09436007511504,-0.5412858284197747
1788867448532178400,6.410178466796875,-1.5957950277268886,1.471202725635469,-0.16163276012111455
1788867448542138600,6.420138671875,-1.6037655682146548,1.5240353211566804,-0.21909520740006116
1788867448552099600,6.430099609375,0.6715425860136747,1.0674006834536791,0.28830000532306727
1788867448562059500,6.4400595703125,1.500906666764617,0.7392175805535167,0.23927966156639158
1788867448572019500,6.45001953125,1.4856909774541853,0.8262094161123037,0.16954861127957702
1788867448581979400,6.4599794921875,2.8054899664402004,-0.07446005157008767,0.17942162438780068
1788867448591939300,6.469939208984375,2.7916531642675397,-0.0018039806820452212,0.13081336856335402
1788867448601899500,6.4798994140625,3.43632937066555,-0.9071566377446055,0.24959208900518715
1788867448611859500,6.489859375,3.3267332699149845,-1.1089273104541002,0.17943156125992535
1788867448621819400,6.4998193359375,3.327304347801208,-1.0955094643458723,0.2060486422896385
1788867448631779300,6.509779296875,2.1471318561702963,-0.945788420086354,-0.08293035827353597
1788867448641740500,6.519740478515625,2.1551456512778997,-0.9616557051733136,-0.01452507669776678
1788867448651700500,6.529700439453125,0.6047036769717932,-0.26650574133992194,-0.20827676666788755
1788867448661660400,6.539660400390625,-0.05379238046407699,0.01408113232254982,-0.19297800218388436
1788867448671620600,6.54962060546875,-0.045134442234039306,-0.018351649248600006,-0.12251392491478472
1788867448681580500,6.55958056640625,-0.9992752417325973,0.5616401957929134,0.020458521867357193
1788867448691540500,6.56954052734375,-0.9934504811018705,0.5321360150195658,0.06217617792785168
1788867448701500400,6.57950048828125,-1.12974578820765,1.1244367950793355,0.08573182556033133
1788867448711460600,6.589460693359375,-0.9789198514461517,1.2302321153074502,0.1697779265234247
1788867448721420500,6.599420654296875,-0.978536989608407,1.2263482596114277,0.16758567717615513
1788867448731381500,6.609381591796875,-0.2747346405029297,0.8365264466609805,0.3491910753438249
1788867448741341700,6.619341796875,-0.27725802150070666,0.8524372786287218,0.3369577263124287
1788867448751301600,6.629301513671875,0.44235155306756496,0.2945975710973143,0.295755691623874
1788867448761261600,6.639261474609375,0.6523971560388803,0.10749693651422858,0.24887188497185705
1788867448771221500,6.649221435546875,0.6487596763193607,0.13200725452303885,0.2400730769664049
1788867448781181700,6.659181640625,0.9309978243201971,-0.4049211093395948,0.3297327800275758
1788867448791141600,6.6691416015625,0.9283598770320415,-0.3871664030708372,0.3251133400660008
1788867448801101600,6.6791015625,1.0724404311865567,-0.6523360735014081,0.4935431764487177
1788867448811061500,6.6890615234375,1.0830851593196391,-0.6629704263709485,0.5342838041706011
1788867448821022500,6.6990224609375,0.9651268884152173,-0.6333632236145437,0.534067531071417
1788867448830982400,6.708982421875,0.7429565478861332,-0.5512978116072714,0.45674788881912826
1788867448840942600,6.718942626953125,0.7443734289467334,-0.5569220812298357,0.47029202818814664
1788867448850903000,6.728903076171875,0.17821780155599115,-0.5122143399752677,0.4535623906508088
1788867448860863000,6.738863037109375,0.024538228929042814,-0.47559901202246546,0.5791483799546957
1788867448870823000,6.748822998046875,0.055527825954556465,-0.44273587621003385,0.7328475340649485
1788867448880783000,6.758783203125,0.16949147426486014,-0.4107030537419021,0.8015333861477673
1788867448890743000,6.768742919921875,0.16903028649389742,-0.4049365991696715,0.8092347543053329
1788867448900703000,6.778702880859375,0.12212006675899029,-0.4197736644260585,0.7034953289829194
1788867448910664200,6.788664306640625,-0.011296470040082931,-0.5026544844694435,0.5771371862627566
1788867448920624000,6.7986240234375,-0.11678045929670333,-0.5765853975988924,0.47882933571320024
1788867448930584000,6.808583984375,-0.2556985161215067,-0.6213717570476234,0.4208367270803079
1788867448940544300,6.818544189453125,-0.25896599348485466,-0.5951826921716332,0.4363148301865905
1788867448950504200,6.828504150390625,-0.2629723065167665,-0.7046664185889064,0.29518965523894874
1788867448960464100,6.838464111328125,-0.11158990491628647,-0.8064217427112161,0.3021630379155278
1788867448970424000,6.848424072265625,0.06536532935798167,-0.8998924919605255,0.33154669758174565
1788867448980384000,6.858384033203125,0.20120997008681296,-0.9752760881163179,0.30117358848676085
1788867448990344000,6.868343994140625,0.196467159473896,-0.9456234387829899,0.30295941245760766
1788867449000305000,6.878304931640625,0.3747136026024818,-1.025558414632827,0.19634240058306604
1788867449010265000,6.88826513671875,0.3983692034780979,-1.0143836712762713,0.13344552543153987
1788867449020225000,6.89822509765625,0.4326099112540483,-0.961257645766437,0.11532200411669909
1788867449030185000,6.90818505859375,0.37124388066530223,-0.8329505609355866,0.03986764427963644
1788867449040145000,6.918144775390625,0.36755320945382114,-0.8109595322713256,0.04509314210927114
1788867449050105000,6.92810498046875,0.25364216811358925,-0.5647035288862884,0.07675263775298372
1788867449060065000,6.93806494140625,0.17285189060866832,-0.4352183401867747,0.11513397073131054
1788867449070025000,6.94802490234375,0.1471720904290676,-0.3004806377865374,0.14670213482975958
1788867449079985000,6.95798486328125,0.13111118246614933,-0.1845160249173641,0.13425960002709178
1788867449089946000,6.967946044921875,0.12750760501623154,-0.16437909968718886,0.1395517881510779
1788867449099906000,6.977906005859375,0.11001695651113987,-0.12750102914497255,0.0760042488047853
1788867449109866000,6.987865966796875,0.10129530539512634,-0.3046291357681155,0.2245956131809391
1788867449119826200,6.997826171875,0.35236966884732246,-0.504699434300512,0.39970761247500775
1788867449129786000,7.0077861328125,0.7502607334196567,-0.6218969499655067,0.36777240516245363
1788867449139746000,7.01774609375,0.7456494402319193,-0.5967258299604058,0.3835995043694973
1788867449149706200,7.027706298828125,0.31769349226355553,-0.9700750123418868,-0.14799272262956947
1788867449159666200,7.037666259765625,-0.2873386860102415,-1.1394915216743946,-0.49446029129363595
1788867449169626000,7.047626220703125,-1.2050298695117234,-0.9374455391548573,-0.8222619205955416
1788867449179587000,7.057587158203125,-1.9657576364099978,-0.5462967884495854,-0.9891416049268096
1788867449189547000,7.067547119140625,-1.9573931281685828,-0.5879686691395938,-0.9545156241603195
1788867449199507000,7.0775068359375,-2.658088158908486,0.47671837144121526,-0.9808735427971929
1788867449209467000,7.087466796875,-2.5535651236385104,0.9499060845382511,-0.7557127152152359
1788867449219427000,7.097427001953125,-2.1527648936212063,1.3318046302087605,-0.5274037258006632
1788867449229387000,7.107386962890625,-1.6562690779119729,1.5656125093005597,-0.3292874474128708
1788867449239347000,7.117346923828125,-1.6489567090719937,1.5180727594904602,-0.3851970026940107
1788867449249307000,7.127306884765625,-0.4850362640619278,1.8024701313517986,-0.18645274686729535
1788867449259267000,7.13726708984375,0.0530032759130001,1.8001826049365102,-0.21924139267141
1788867449269228000,7.14722802734375,0.48235740024149415,1.6918426417268813,-0.293197641171515
1788867449279188000,7.15718798828125,0.7598159127503633,1.4948241319805382,-0.40994193317629396
1788867449289148200,7.167148193359375,0.7594131771683692,1.486352510102838,-0.4509247721562162
1788867449299108000,7.177108154296875,0.9544587794065474,1.0442921950668096,-0.7329664842694997
1788867449309068000,7.187068115234375,1.1838006190001964,0.7851030603505671,-0.851156079711765
1788867449319028000,7.197028076171875,1.4358435352236032,0.5374946194432676,-0.92881960349828
1788867449328988200,7.20698828125,1.5626356854468584,0.3897688406541943,-1.0150457884468138
1788867449338948000,7.216947998046875,1.5564865151673555,0.4224380613297224,-1.029108654460311
1788867449348908000,7.226907958984375,1.6546686569780111,0.27316782957762475,-1.3013833345904946
1788867449358869000,7.236868896484375,1.4393980128347872,0.2711277020521462,-1.5599072833962737
1788867449368829000,7.246828857421875,1.0740203938543795,0.3435748063646257,-1.8165778594203292
1788867449378788900,7.256788818359375,0.6285854878187179,0.41710999817475675,-2.0584369430206717
1788867449388749000,7.2667490234375,0.6348743588298559,0.387787019187212,-2.0305241230919955
1788867449398709000,7.276708984375,-0.4587929847806692,0.4091619617797434,-2.345288283905387
1788867449408669000,7.2866689453125,-0.965703811520338,0.6021313422657549,-2.510624392056465
1788867449418628900,7.29662890625,-1.2427069814771412,0.9560087853275239,-2.4950655883967876
1788867449428589000,7.306589111328125,-1.3211620940327644,1.270587506571412,-2.2829101536646483
1788867449438549000,7.316549072265625,-1.3150982639491557,1.2228861364588142,-2.298909540698677
1788867449448510000,7.326510009765625,-1.0114736290484667,1.878894760993123,-1.8708982092812656
1788867449458470100,7.33647021484375,-0.6696861444920301,1.9512853128127752,-1.742466621287912
1788867449468430000,7.34643017578125,-0.2419201661378145,1.7504004830271005,-1.6761285013750193
1788867449478390000,7.35639013671875,0.16614450192451477,1.317286275512725,-1.6409196792192755
1788867449488350000,7.366349853515625,0.16291268039643764,1.322463385889679,-1.6821192662224174
1788867449498310100,7.37631005859375,0.9025526510804891,0.5127038770578801,-1.741637623117864
1788867449508270000,7.38627001953125,1.1875567566633223,0.23921441431045531,-1.8370798185706136
1788867449518230000,7.39622998046875,1.3591992714822292,-0.05384951747879386,-1.8662877928763626
1788867449528190000,7.40618994140625,1.418534673026204,-0.33062355485484,-1.8944933121412992
1788867449538151000,7.41615087890625,1.4181009577840566,-0.32875922228768467,-1.8968730468846857
1788867449548110800,7.42611083984375,0.9652356094866991,-0.3942337111085653,-1.9732275338992475
1788867449558070800,7.43607080078125,0.515398084577918,-0.16427563931271433,-2.007658503550291
1788867449568031000,7.446031005859375,0.15595979251861572,0.10325666859596967,-1.966822781423479
1788867449577991000,7.455990966796875,-0.017788754668831824,0.3006295447379351,-1.8533640138953924
1788867449587950800,7.465950927734375,-0.013372691792249678,0.2694929404571652,-1.8463444905221462
1788867449597911000,7.4759111328125,-0.27420447914898394,0.6311132527306675,-1.7581752086818216
1788867449607871000,7.48587109375,-0.44230011514127254,0.6544402061738074,-1.7834087263986467
1788867449617831000,7.495830810546875,-0.5600771842598915,0.6519250815477222,-1.8283304026648401
1788867449627792100,7.505792236328125,-0.5681809957385063,0.5725785000450909,-1.806008388480544
1788867449637752000,7.515751953125,-0.5672802475064993,0.5644115602023899,-1.8064993868678807
1788867449647712000,7.5257119140625,-0.44463937174379825,0.5099629077866673,-1.8427476350739598
1788867449657672000,7.535671875,-0.4446592454880476,0.510505563296005,-1.8421508382245897
1788867449667632000,7.545632080078125,-0.3468476905554533,0.4213599837694317,-1.9780007396504282
1788867449677592000,7.555592041015625,-0.26013562178611754,0.34113822686746714,-1.9899821232147514
1788867449687552000,7.565552001953125,-0.26105332115292545,0.3496216853134334,-1.9891104549467562
1788867449697512000,7.575511962890625,0.016924246793985367,0.2034934048488736,-1.9892315971083938
1788867449707472100,7.58547216796875,0.0820475840896368,0.1823421149443835,-1.970744484911859
1788867449717433000,7.59543310546875,0.09271978475153446,0.2299290648970753,-1.9860861386895179
1788867449727393000,7.60539306640625,0.03413432479202747,0.2824803592588752,-1.9849054044723509
1788867449737353000,7.61535302734375,0.03374503321349621,0.2856893113680184,-1.98497233222872
1788867449747313000,7.62531298828125,-0.056632572326064105,0.4696430992927402,-1.8502347759589552
1788867449757272800,7.63527294921875,-0.03512450487315655,0.6239915841571986,-1.7451519148491321
1788867449767233000,7.64523291015625,0.03931494230031967,0.7882125706732273,-1.6376999865204094
1788867449777193000,7.65519287109375,0.07239946577847003,0.9022690118335187,-1.541246568198502
1788867449787153000,7.66515283203125,0.07084463755190372,0.9100264940924941,-1.5498577446773647
1788867449797114000,7.675114013671875,0.021618542090058326,0.8416435704790055,-1.3987969762466848
1788867449807074000,7.685073974609375,0.019420739784836768,0.8528156834870576,-1.4099828255191444
1788867449817034000,7.695033935546875,0.06216156488060951,0.7196791326731443,-1.279466978597641
1788867449826994000,7.704993896484375,0.05991583178043365,0.729652318220213,-1.2925588076218961
1788867449836954000,7.7149541015625,0.1485848798364401,0.6906770562030374,-1.2417030651316046
1788867449846913000,7.7249130859375,0.2453057169228792,0.5903386131413281,-1.0680619969066232
1788867449856873000,7.734873046875,0.2438151861041784,0.5983015548445284,-1.0739840073667466
1788867449866833200,7.744833251953125,0.11803425875008106,0.574773379740864,-0.8819158865693956
1788867449876793000,7.75479296875,0.011034019711613654,0.5526442577801645,-0.7371495421078056
1788867449886754000,7.764754150390625,0.009926350730657577,0.5609904997125268,-0.7373158385854214
1788867449896714200,7.77471435546875,-0.16857962011694907,0.6339912923850118,-0.44192711711041627
1788867449906674200,7.784674072265625,-0.16911095051467417,0.6364351784057914,-0.44453766493499275
1788867449916634000,7.794634033203125,-0.382682389524579,0.7433398481152951,-0.23056341727785765
1788867449926594000,7.804593994140625,-0.5758920085072518,0.7037078026898205,-0.14735731080286205
1788867449936554200,7.81455419921875,-0.5764361983865499,0.6961002502955496,-0.16603972637578843
1788867449946514200,7.82451416015625,-0.6740484313547611,0.3602348492644727,0.28711883271448313
1788867449956474000,7.83447412109375,-0.675514412254095,0.34981443140655755,0.2551101948395371
1788867449966434000,7.84443408203125,-0.4495733210146427,0.25952143541052936,0.7460965994775295
1788867449976394200,7.854394287109375,-0.41088557070195675,0.1196473930351436,0.9523960747230797
1788867449986355000,7.86435498046875,-0.41233635403215885,0.10263130323924123,0.9161620742380618
1788867449996315000,7.87431494140625,-0.36084465172588825,0.12991042837426064,0.9282114815372973
1788867450006275000,7.884275146484375,-0.35847324641942974,0.09612031391002238,0.911963745765388
1788867450016235000,7.894235107421875,-0.9474626369088888,0.4592890977345407,0.4486852130685001
1788867450026195000,7.90419482421875,-1.4189812477499246,0.5713748233437538,0.42433673455789683
1788867450036155000,7.91415478515625,-1.4126286638528107,0.5321980474051088,0.44480881002657113
1788867450046115000,7.924114990234375,-2.520214642700553,0.7192350421674549,0.5386689969848841
1788867450056075000,7.934074951171875,-2.5174586219906807,0.7025148665782064,0.5492169867452233
1788867450066035000,7.944034912109375,-2.492427056586742,0.9701401134673505,0.6232911808028817
1788867450075996200,7.95399609375,-1.9763035803437232,0.9925405266501008,0.6327926571849734
1788867450085956000,7.9639560546875,-1.9830302582502364,1.021055404125154,0.5966627746615558
1788867450095916000,7.973916015625,-0.372059288701415,0.7384758222755045,0.6299341259486972
1788867450105876200,7.983876220703125,-0.38197044186294077,0.7813779754128307,0.5846979769058526
1788867450115836200,7.993836181640625,0.9317758229553699,0.16837781393453477,0.7502182825174182
1788867450125796000,8.003796142578125,1.367881175109744,0.02349653785638511,0.6190705674331635
1788867450135756000,8.013756103515625,1.3582190282732247,0.07547127443924546,0.5946785420417785
1788867450145716200,8.02371630859375,1.796241612225771,-0.41189591678827997,0.4244168140567839
1788867450155676200,8.03367626953125,1.7897849834322928,-0.3656880001038313,0.42378129263222214
1788867450165637000,8.04363720703125,1.4357967734724282,-0.7131058917626738,0.229045560060814
1788867450175597300,8.053597412109376,1.2727017222464083,-0.7145026068180799,0.2299196394816041
1788867450185557200,8.06355712890625,0.9354483739882707,-0.3404531672127545,0.171827662127465
1788867450195517200,8.07351708984375,0.5904547868669032,0.01925225135013461,0.172566205535084
1788867450205477000,8.08347705078125,0.5919453176856041,0.029004560688138007,0.1977032771401107
1788867450215437000,8.09343701171875,0.16043255401849746,0.3714474404133856,0.15549970072619615
1788867450225397000,8.10339697265625,0.007498831322789192,0.3654280339933932,0.21161175630949436
1788867450235357000,8.11335693359375,-0.17807459369301795,0.4677778168775141,0.22841953711695967
1788867450245316900,8.12331689453125,-0.4277572105258703,0.6238721955612302,0.22220307375490664
1788867450255278000,8.133278076171875,-0.424167661601305,0.6194061560630798,0.2500111912000924
1788867450265238000,8.143238037109375,-0.862606425139308,0.9401903078183531,0.20404994275309143
1788867450275198000,8.153197998046876,-0.9569751461416482,1.1397016572937368,0.14957023761197924
1788867450285158100,8.163158203125,-0.8561714236557483,1.1476130149401724,0.07508797421008348
1788867450295118000,8.1731181640625,-0.4918839379996061,0.8662871594786643,0.09083324035257101
1788867450305078000,8.183078125,-0.4972685536473989,0.8898897149927913,0.074074778579548
1788867450315038200,8.1930380859375,0.4775064530789852,0.38946108987927436,0.059811129296943544
1788867450324998100,8.202998046875,0.859495599642396,0.20545418352782724,0.13027034772783516
1788867450334958000,8.2129580078125,1.2470108161509037,0.0374552859082818,0.2070348768480122
1788867450344919300,8.222919189453124,1.4531383688956498,-0.09143646694272756,0.2785921927139163
1788867450354879200,8.232879150390625,1.4523708916544913,-0.08319792316854,0.28418212167546153
1788867450364839200,8.242839111328125,1.4670020590752362,-0.07647811339423059,0.43276144855394955
1788867450374799000,8.252799072265624,1.2119248897224664,0.06703457774445414,0.39415808858908713
1788867450384759300,8.26275927734375,0.8615595464348792,0.15691358611211179,0.35336145636364813
1788867450394719200,8.27271923828125,0.5711871918171644,0.10387713858187198,0.3484848633032292
1788867450404679200,8.28267919921875,0.5728647696405649,0.11223945486620068,0.3820171305488795
1788867450414639000,8.29263916015625,0.49845162595212456,-0.11670695566907524,0.4464922330688685
1788867450424599300,8.302599365234375,0.5554582922875881,-0.21023454967215657,0.4206317425601184
1788867450434560000,8.31256005859375,0.574287495920062,-0.3154223324611783,0.3101082978315651
1788867450444520000,8.32252001953125,0.5025666600555181,-0.4713524604938924,0.19953319598101077
1788867450454480100,8.332480224609375,0.5068225639343261,-0.48855815457776186,0.21639204938858747
1788867450464440000,8.342440185546875,0.1998182234674692,-0.6798933579906821,0.006045929100736975
1788867450474400000,8.35239990234375,0.09359949019551277,-0.7696599920250475,-0.008563245683908462
1788867450484360200,8.362360107421875,0.10648410620987414,-0.8861791700370609,-0.000801087249815464
1788867450494320000,8.372320068359375,0.18586685500442982,-0.9435197445020079,0.05809943000823259
1788867450504280000,8.382280029296876,0.1863549307823181,-0.9429144720852375,0.06606207945048809
1788867450514240000,8.392239990234375,0.5280822095841169,-1.0131652353972196,0.37606808595135804
1788867450524201200,8.402201171875,0.6586030249416828,-1.0120873770326375,0.5285884786058217
1788867450534161200,8.4121611328125,0.7255138301759958,-0.977777987934649,0.6188133047364652
1788867450544121000,8.42212109375,0.656084904640913,-0.8964723082534969,0.6255096605699509
1788867450554081300,8.432081298828125,0.65857087623775,-0.9039559420071541,0.6441270480826496
1788867450564041200,8.442041259765626,0.11280044974982738,-0.5789046343266964,0.5501905079524964
1788867450574001200,8.452001220703124,-0.16129180119633674,-0.4544353740930557,0.5778955303493887
1788867450583961000,8.461961181640625,-0.2783832261383533,-0.32902693331316113,0.6417606842774898
1788867450593921300,8.47192138671875,-0.3384592169165611,-0.205513366369158,0.6762951873682439
1788867450603881200,8.481881103515626,-0.340050285500288,-0.18807474031224847,0.6981149511188268
1788867450613842000,8.491842041015625,-0.2019143189638853,-0.26095541373640296,0.706126335073635
1788867450623802000,8.501802001953125,-0.12089023270308971,-0.4279859047152102,0.6855168969608842
1788867450633762000,8.511761962890626,-0.09626198740303515,-0.5853726612970233,0.6154726160064339
1788867450643722000,8.521721923828125,-0.13309680332541465,-0.7027725676663219,0.5349096444513648
1788867450653682000,8.531681884765625,-0.13350246151685713,-0.6934625952683389,0.5611878489155322
1788867450663642000,8.54164208984375,-0.4632739295870065,-0.6639438014477491,0.44480007873084393
1788867450673602000,8.55160205078125,-0.6563941167205571,-0.49330461845248935,0.3987965985773131
1788867450683562000,8.56156201171875,-0.7650847930639981,-0.3609196166582405,0.40018206158634273
1788867450693523200,8.571523193359376,-0.8467150285243987,-0.37172976448610423,0.4063394151723012
1788867450703483100,8.581483154296874,-0.8482792091012,-0.35957638535574077,0.4243871130382642
1788867450713443000,8.591443115234375,-0.5141933849632739,-0.7956336605846881,0.6123728598928079
1788867450723403300,8.6014033203125,-0.1808966653764248,-0.9171779732823372,0.5893155537039041
1788867450733363200,8.61136328125,-0.11695815395116806,-0.8944590687349439,0.34472843337915837
1788867450743323100,8.6213232421875,-0.4505149857789278,-0.8693529767900705,0.026768892324250188
1788867450753283000,8.631282958984375,-0.446627915212512,-0.8869682745881378,0.062213916122354565
1788867450763243300,8.6412431640625,-1.474341315922141,-0.5589372204445302,-0.3289937616959214
1788867450773203200,8.651203125,-1.8123124570608138,-0.3764741825342178,-0.3800555116197094
1788867450783164000,8.661163818359375,-1.9649521652460098,-0.10392492324635386,-0.4585690763643011
1788867450793124000,8.6711240234375,-2.0126397990942,0.20211101057976483,-0.532219638182409
1788867450803084000,8.681083984375,-2.0095114379405974,0.18354820279851555,-0.5237114836866036
1788867450813044000,8.6910439453125,-1.5935048709630966,0.4873028938196599,-0.362279360704124
1788867450823004000,8.70100390625,-1.121927807933092,0.5943680147878825,-0.2796219376204535
1788867450832964000,8.710964111328124,-0.5120721550256013,0.6882429609239101,-0.22654607139527796
1788867450842924000,8.720924072265625,0.08371288695335388,0.6908157340213656,-0.2036251414697617
1788867450852885000,8.730885009765625,0.08329320023655891,0.6911541721954941,-0.22861438383562488
1788867450862845200,8.74084521484375,1.0163158083826302,0.467922632175684,-0.16305398856326936
1788867450872805000,8.75080517578125,1.2907307154119014,0.38100159683078527,-0.17777106243548912
1788867450882766000,8.76076611328125,1.4074743498295545,0.3004759616114199,-0.19809079688666387
1788867450892726300,8.770726318359374,1.4107307212769984,0.26760274279639124,-0.35654191303066907
1788867450902686200,8.780686279296875,1.4082979411721228,0.2846430171854794,-0.3345254576642066
1788867450912646100,8.790646240234375,0.8784919765353202,0.13025880342051385,-0.7501476284340024
1788867450922606000,8.800606201171876,0.5825204867362975,0.07104790503904224,-0.9020360067952424
1788867450932566300,8.810566162109374,0.43191082307398315,0.008784633349627256,-0.9693674485944211
1788867450942526200,8.820526123046875,0.4298077133148908,0.033372546639293434,-1.0017095562074332
1788867450952486100,8.830486083984376,0.42752573985755443,0.04676934995949268,-0.9873968070860951
1788867450962446300,8.8404462890625,0.4905640875726938,0.10279840343445538,-0.9734140936367213
1788867450972407000,8.850406982421875,0.4323281717032194,0.1502881766229868,-0.969449208593741
1788867450982367000,8.860366943359375,0.32074645009338854,0.17200477226004005,-0.9149044753924012
1788867450992327200,8.8703271484375,0.28242227239608764,0.22101517914459107,-0.806819875183329
1788867451002287000,8.880287109375,0.2821580685019493,0.2223721467114985,-0.8167838545106351
1788867451012247000,8.8902470703125,0.6505617573052644,0.2647353706665337,-0.4842424102704972
1788867451022207000,8.90020703125,0.9887602774590253,0.30699381907284257,-0.2722807810774073
1788867451032167200,8.910167236328125,1.2316262000143527,0.3267436446815729,-0.08295638776393607
1788867451042127000,8.920127197265625,1.3838818773180246,0.3386326737873256,0.04506338629182428
1788867451052088000,8.930088134765626,1.3831903879225254,0.3408960886746645,0.023031048369640483
1788867451062048300,8.94004833984375,1.7204712087094782,0.19153306407257914,0.1686190388118848
1788867451072008200,8.95000830078125,1.8146452839225529,-0.012808628168702124,0.14737585110655055
1788867451081968000,8.959968017578126,1.802263356733322,-0.1953700118869543,0.07159631443573161
1788867451091928000,8.969927978515624,1.539448286604881,-0.32672917776480315,-0.0540017488984391
1788867451101888300,8.97988818359375,1.5408236666113138,-0.33291999522894616,-0.03765179486107081
1788867451111848200,8.98984814453125,0.5446054743617773,-0.30602336660549045,-0.4096600474949926
1788867451121808100,8.99980810546875,0.5474123484760522,-0.3204856072001159,-0.3897120324330404
1788867451131768000,9.00976806640625,-0.1080330892175436,-0.09705167647600173,-0.6719212100677192
1788867451141728300,9.019728271484375,-0.44945057141780853,0.014528145437687635,-0.7721307660527527
1788867451151689000,9.02968896484375,-0.446032871928811,-0.004903408002108335,-0.7595789621893316
1788867451161649000,9.03964892578125,-0.8683575360119342,0.15842545197978614,-0.8164354063991457
1788867451171609000,9.049609130859375,-0.8658785786777734,0.14360329203158617,-0.8177113446190952
1788867451181569000,9.059569091796876,-0.8024404179900884,0.04119067304432392,-0.723125327604264
1788867451191529000,9.069529052734374,-0.4879845924735069,-0.02638356453478336,-0.6507764229692519
1788867451201489200,9.0794892578125,-0.488790063637495,-0.022972148656100033,-0.6750130386032164
1788867451211449000,9.089448974609375,0.46523441600501536,-0.25054405596777796,-0.4632094860486686
1788867451221409000,9.099408935546874,0.4627145421385765,-0.2373579727888107,-0.4841884881261736
1788867451231369000,9.109368896484375,1.010260746127367,-0.5234368679963052,-0.32193397937752305
1788867451241330200,9.119330078125,1.0746300501853228,-0.6261325417086482,-0.32605354352556165
1788867451251290000,9.1292900390625,1.0724445228397845,-0.6130493343822657,-0.3223379205359146
1788867451261250000,9.13925,0.671736062759161,-0.7062076566815376,-0.4387970754563808
1788867451271210200,9.149210205078125,0.6702361795902252,-0.6963127240024507,-0.4243887570060789
1788867451281170200,9.159170166015626,0.11973054127395152,-0.7392601775862276,-0.4600469668971374
1788867451291130000,9.169130126953124,-0.06525251663327217,-0.7354584472157061,-0.4438519111605361
1788867451301090000,9.179090087890625,-0.06585048252642155,-0.7313885674282908,-0.4332232939120382
1788867451311050200,9.18905029296875,-0.3244160785168409,-0.6792736186571419,-0.4453986656785011
1788867451321010200,9.19901025390625,-0.3233966723412275,-0.6846640795238316,-0.43867257229387757
1788867451330971000,9.208970947265625,-0.6835510037153959,-0.5383649725370109,-0.4792880027335137
1788867451340931000,9.21893115234375,-0.8861521358996629,-0.41222178774178025,-0.5101834186695516
1788867451350891000,9.22889111328125,-0.8843038776844739,-0.42275969449952244,-0.5082091594545171
1788867451360851000,9.238850830078125,-1.104006951317191,-0.2951455603688955,-0.310017441210337
1788867451370811000,9.248810791015625,-1.1031675778836012,-0.3002988514788449,-0.3155696319773793
1788867451380771000,9.25877099609375,-1.0137217002362011,0.05179331560134887,-0.1681640250533819
1788867451390731000,9.26873095703125,-0.8683446765303611,0.21778554957360027,-0.15297079416993073
1788867451400691000,9.27869091796875,-0.8697720789849758,0.22485358826369045,-0.17005593974720687
1788867451410651100,9.288651123046876,-0.4834206455588341,0.007068477081507444,-0.11170603297608904
1788867451420612000,9.298612060546875,-0.4856932666659355,0.01836801586151123,-0.13053946525910867
1788867451430572000,9.308572021484375,-0.30175299580991266,-0.25133915186822414,-0.23626431406689807
1788867451440532200,9.3185322265625,-0.19353753576278684,-0.3045189533919096,-0.2994107983316295
1788867451450492200,9.3284921875,-0.1963631145775318,-0.2918298599496484,-0.32420495651680975
1788867451460452000,9.3384521484375,-0.008112579306960105,-0.271707109375298,-0.35602198080979286
1788867451470412000,9.348412109375,-0.011835983744263649,-0.2561696407645941,-0.3878113864434883
1788867451480372200,9.358372314453124,0.1931920833259821,-0.31799978173375126,-0.1934090870775282
1788867451490332200,9.368332275390625,0.5290794039279222,-0.4086632184773683,-0.046895679752901195
1788867451500292000,9.3782919921875,0.5237018025428056,-0.3895217340253293,-0.09053783760257064
1788867451510253300,9.38825341796875,1.1062976926028727,-0.6949290145590901,0.09625745735839009
1788867451520213200,9.398213134765625,1.104544126933813,-0.691160017414391,0.07465440509840846
1788867451530173200,9.408173095703125,0.526843607699871,-0.7960682526096701,-0.08072247296571732
1788867451540133000,9.418133056640626,-0.01525485227704048,-0.645313481388241,-0.19708828704692422
1788867451550093000,9.428093017578124,-0.4429232154756784,-0.30768823107779025,-0.38334216860756276
1788867451560053000,9.438052978515625,-0.943808790576458,0.052525137007236475,-0.6209485631994903
1788867451570013000,9.448012939453125,-0.9351707260906695,0.013291297119110822,-0.5799877533882856
1788867451579972900,9.457972900390626,-1.9508008902966976,0.8244451829187571,-0.6962896353878081
1788867451589933000,9.46793310546875,-2.265409860548377,1.0298279086455702,-0.5661797023860737
1788867451599894000,9.47789404296875,-2.4535130963027476,1.1213387559987604,-0.44511144623495635
1788867451609854000,9.48785400390625,-2.2213848408609627,1.2835082168124616,-0.20273564528413116
1788867451619814100,9.497814208984375,-2.227932070547342,1.3186825521767138,-0.22194862406980245
1788867451629774000,9.507774169921875,-0.4725368479728698,1.0729336215309797,0.2691314867336303
1788867451639734000,9.517734130859376,0.380617858210206,0.6575551233239472,0.3897608765434474
1788867451649694200,9.527694091796874,0.37023499588370323,0.6983274248257278,0.3235168281221762
1788867451659654100,9.537654052734375,1.9824626874953508,-0.06584259148091078,0.36270003380160776
1788867451669614000,9.547614013671875,1.976339236178994,-0.04790098433792591,0.3140881977805868
1788867451679574000,9.557573974609374,2.578484460839629,-0.6054216159828006,0.14940960369016976
1788867451689535200,9.56753515625,2.2384154706388713,-0.7469846343584359,-0.014755560985393821
1788867451699495200,9.5774951171875,1.6935574828207491,-0.7945389972157776,-0.16664788486938922
1788867451709455000,9.587455078125,1.1332850682497024,-0.6379631186254322,-0.2485198931964114
1788867451719415300,9.597415283203125,0.6117506728738547,-0.4220734658010304,-0.16757022387869655
1788867451729375200,9.607375244140625,0.23058102599978444,-0.03132306676357984,-0.1353863390346989
1788867451739335200,9.617335205078126,-0.07581774978935718,0.2826097577922046,-0.11485025841910391
1788867451749295000,9.627295166015625,-0.2573369309782982,0.48948345272913574,-0.03363035732526332
1788867451759255300,9.63725537109375,-0.3401151674300432,0.6063942604072392,0.03409596554301679
1788867451769215200,9.64721533203125,-0.3160217596590519,0.6031463645271956,0.07703866988644004
1788867451779176000,9.657176025390624,-0.18182137900590895,0.5740891968689859,0.0995047687165439
1788867451789136100,9.66713623046875,0.05367372252047062,0.5630101689718663,0.12462507184986024
1788867451799096000,9.677095947265625,0.2563496735066175,0.513123563774675,0.12407963986154645
1788867451809056000,9.687055908203124,0.3609901976764202,0.4482995016865432,0.1201131839159876
1788867451819016200,9.69701611328125,0.4110276095211506,0.3683319387413561,0.09519337179083377
1788867451828976000,9.70697607421875,0.4341401895612478,0.28897403212711215,0.1101394138470292
1788867451838936000,9.71693603515625,0.45311260105669493,0.24512466126754878,0.1573563614435494
1788867451848895700,9.726895751953125,0.47239714724123477,0.240004834035784,0.1668354798633605
1788867451858855700,9.736855712890625,0.46395431306660173,0.25910174869373437,0.15524864857457576
1788867451868816600,9.746816650390626,0.3988923505693674,0.2934178597934544,0.13491963483840227
1788867451878776800,9.75677685546875,0.2305582296460867,0.3127626117326319,0.10595080305077136
1788867451888736800,9.76673681640625,-0.02768938643634319,0.3550162378333509,0.10574647611770778
1788867451898696700,9.77669677734375,-0.18253215762376784,0.360147609372437,0.10606361577548086
1788867451908657000,9.786656982421874,-0.1687362719833851,0.3027167262755334,0.15902977454848585
1788867451918616800,9.796616943359375,0.05817220298349857,0.20216990116015077,0.2920439776243642
1788867451928576800,9.80657666015625,0.40495559613108634,0.11692527459487319,0.42107287392374126
1788867451938536700,9.81653662109375,0.7180033084154128,0.041935792323201895,0.5178087259162217
1788867451948497000,9.826496826171875,0.9512836565017699,-0.05484232790842652,0.5751918243486434
1788867451958457600,9.83645751953125,0.9870417831033468,-0.14693053675815462,0.5801092974087223
1788867451968417500,9.84641748046875,0.9830664497315883,-0.2624577811233699,0.5956357331687584
1788867451978377700,9.856377685546875,0.8842331505358219,-0.2846260660506785,0.5748100219568237
1788867451988337700,9.866337646484375,0.74115329785645,-0.25344635328054427,0.5861593912279233
1788867451998297600,9.876297607421876,0.5874883382767438,-0.17684943581223486,0.6397443029537797
1788867452008257500,9.886257568359374,0.4315472504585981,-0.11500365888252853,0.6975900504618883
1788867452018217700,9.8962177734375,0.35355040306448937,-0.08028510446175932,0.7491995339289307
1788867452028177700,9.906177734375,0.32620237741172314,-0.1083051841571927,0.7614284625135361
1788867452038137600,9.9161376953125,0.2696925546824932,-0.19443667655959723,0.7129277587167918
1788867452048098800,9.926098876953125,0.13568740434050558,-0.30271701853647826,0.6219535024583339
1788867452058058800,9.936058837890625,0.06007189912497997,-0.40937005157247186,0.5779203725297004
1788867452068018700,9.946018798828124,0.047775896653532976,-0.5249648082159459,0.5551308504315093
1788867452077978600,9.955978515625,0.09922843599319457,-0.6300836174219846,0.5602487779671326
1788867452087938800,9.965938720703125,0.20212065519094466,-0.6717280255831778,0.5815750591123476
1788867452097898800,9.975898681640626,0.2757084539711475,-0.698041885882616,0.5998466288620605
1788867452107858700,9.985858642578124,0.2603290985316038,-0.7024258000552653,0.6148597448050975
1788867452117819000,9.99581884765625,0.19227555300295351,-0.7103603924468159,0.599561893636547
1788867452127778800,10.00577880859375,0.14796177950203418,-0.7360363932341337,0.6010423049200326
1788867452137738800,10.01573876953125,0.18578736002743243,-0.7624550290822982,0.6344144131679087
1788867452147699700,10.02569970703125,0.24470365937650201,-0.7514874987356365,0.6382428123496472
1788867452157659600,10.03565966796875,0.287608150601387,-0.7128771975733339,0.6179530346453189
1788867452167619600,10.04561962890625,0.1992909847229719,-0.7076137240871787,0.5644959870828316
1788867452177579500,10.05557958984375,0.013938508981466292,-0.7365484344094991,0.4772195258963853
1788867452187539700,10.065539794921875,-0.2396890460848808,-0.7255271280489861,0.3752735745728016
1788867452197499600,10.075499755859376,-0.4142629381805658,-0.7164519873201847,0.28989622500594703
1788867452207459600,10.08545947265625,-0.5326952563375235,-0.6580414455361664,0.23779424531422555
1788867452217419500,10.09541943359375,-0.5678273599952459,-0.6194742528632283,0.21224322261344641
1788867452227380700,10.105380615234376,-0.6158440796673298,-0.5992398586079478,0.1703573338465765
1788867452237340700,10.115340576171874,-0.6854764188200235,-0.5918088318243623,0.10383085175473242
1788867452247300600,10.125300537109375,-0.6221329506784677,-0.5972158054344355,0.06122664038436487
1788867452257260800,10.1352607421875,-0.4199187719851732,-0.6467293395355344,0.032311201018095016
1788867452267220700,10.145220703125,-0.13375965114831923,-0.7445785961300134,0.026554665051680058
1788867452277180700,10.1551806640625,0.17208850502073764,-0.9906257790699601,0.17104221083819865
1788867452287140600,10.165140625,0.48821080244481563,-1.0872050157286226,0.24770337091544642
1788867452297100800,10.175100830078126,0.7359580673009156,-1.1029676713973282,0.04506753274397924
1788867452307060700,10.185060791015625,0.6882908917188644,-1.2621684916637836,-0.11732780924746766
1788867452317020700,10.195020751953125,0.1214613105893135,-1.355641286739707,-0.35840441896691916
1788867452326982000,10.20498193359375,-0.5485790541678667,-1.1885923833213745,-0.5668540579836815
1788867452336941800,10.21494189453125,-0.5460445672541856,-1.1999179333254695,-0.5349824539592489
1788867452346901800,10.22490185546875,-1.1345359450936316,-0.6733740392245352,-0.5390251169461756
1788867452356862000,10.234862060546876,-0.7665162871718406,-0.5233763699807227,-0.28180446929130704
1788867452366822000,10.24482177734375,-0.26767244703173637,-0.4002371893070638,-0.08557126470375806
1788867452376781800,10.25478173828125,-0.11019465116560459,-0.35583223039135337,-0.029468488405458626
1788867452386741800,10.26474169921875,-0.29229776972234245,-0.27790859436392784,-0.07782389284684323
1788867452396701700,10.27470166015625,-0.6914683527112007,-0.07540259311720729,-0.2171302640026435
1788867452406661600,10.28466162109375,-1.131743099504709,0.19203049220070242,-0.2889395636019297
1788867452416622600,10.29462255859375,-1.4384113398849963,0.5718561771199107,-0.3266444586234167
1788867452426582800,10.304582763671876,-1.5629665248364208,1.0508468774072826,-0.3749996530022472
1788867452436542700,10.314542724609375,-1.2441355529755354,1.2880443989373742,-0.21503931960538028
1788867452446502700,10.324502685546875,-0.8222054411679506,1.5287570889815687,-0.1408620304994285
1788867452456462600,10.334462646484376,-0.2708861483812332,1.465489170294255,-0.011234748181793838
1788867452466422800,10.3444228515625,0.4079208756774664,1.0463339300274848,0.14009997835205867
1788867452476382700,10.3543828125,1.1017647253483533,0.6584915273912251,0.17905465423893183
1788867452486342700,10.3643427734375,1.712049417322874,0.4195334259293973,0.14710220353063194
1788867452496302800,10.374302734375,2.0607710850566625,0.2613517195776105,0.044063561599515376
1788867452506263800,10.384263916015625,2.119053178155422,0.03823459971770644,-0.08260678887497633
1788867452516223700,10.3942236328125,1.7251029601633547,-0.07904504127278923,-0.3011460976916365
1788867452526184000,10.404183837890624,1.0201923575550318,-0.013364216224849223,-0.6186684894382953
1788867452536144000,10.414143798828125,0.2856529248803854,0.0880970933869481,-0.8338526243418455
1788867452546103800,10.424103759765625,-0.2790565953552723,0.16557605438679457,-0.8354678775187582
1788867452556063700,10.434063720703126,-0.7400351074814796,0.3939285906821489,-0.8401681641642004
1788867452566024000,10.44402392578125,-1.048383263772726,0.6844717718221247,-0.7893360217452049
1788867452575983900,10.45398388671875,-1.1407517508685587,0.9317857598274946,-0.7374503516852855
1788867452585943800,10.46394384765625,-1.1374386807978152,0.9069878570489585,-0.7374860805857926
1788867452595904800,10.47390478515625,-0.9151070122271776,1.16144660224244,-0.2718470841015689
1788867452605864700,10.48386474609375,-0.5879653081387282,1.2544922579474747,-0.10409464465691708
1788867452615824600,10.49382470703125,-0.22035189293026922,1.3356221426703034,-0.058228846807871014
1788867452625784600,10.50378466796875,0.19603928945064544,1.2140117789991198,-0.04290537714087404
1788867452635744800,10.513744873046875,0.6243506267279386,0.8956646451324224,-0.007695011482015251
1788867452645704700,10.52370458984375,0.9899018487095832,0.5071976808570325,-0.04550490124793723
1788867452655664600,10.53366455078125,1.2786346194267273,0.14773016270324588,-0.07508738055503927
1788867452665624600,10.54362451171875,1.3908920483410359,-0.07356412564367056,-0.11621656920309179
1788867452675584800,10.553584716796875,1.3755045095950365,-0.12469956185817718,-0.19990076891807837
1788867452685545700,10.563545654296876,1.3900105893313883,-0.25426556070894,-0.1665609189719893
1788867452695505700,10.573505615234374,1.2521756515681743,-0.2786072441525757,-0.17734595062490552
1788867452705465900,10.5834658203125,1.0569254666686057,-0.2047606483057141,-0.1544206915841438
1788867452715425800,10.59342578125,0.8446130878090858,-0.046144934450834986,-0.16170494857449083
1788867452725385700,10.6033857421875,0.5961567979007959,0.12191080792248249,-0.21496895778290925
1788867452735346000,10.613345947265625,0.37343408418595786,0.23451880384013055,-0.23568213026477022
1788867452745305900,10.623305908203125,0.1701946540981531,0.2693587196182459,-0.21847683803969992
1788867452755265800,10.633265869140626,0.06048398705720901,0.35836766715310514,-0.17180172396861015
1788867452765225700,10.643225830078125,-0.030449498799443243,0.48098903449773783,-0.1670112200227566
1788867452775186700,10.653186767578125,-0.023162848922610283,0.5033223737936466,-0.1279681899989955
1788867452785146600,10.663146728515626,-0.0020358897417783735,0.4431079243928194,-0.15145334794484078
1788867452795106600,10.6731064453125,0.005015197813510895,0.3210760473739356,-0.24342045116554945
1788867452805066800,10.683066650390625,0.07090601235032082,0.1243493601810187,-0.34262020905353124
1788867452815026700,10.693026611328126,0.1818938597202301,-0.04595277287960052,-0.4232360067743808
1788867452824986600,10.702986572265624,0.3464011158317327,-0.20843378386050462,-0.44867874679509545
1788867452834946600,10.712946533203125,0.3458972579628229,-0.20892690113969145,-0.46588181053046135
1788867452844906800,10.72290673828125,0.538141831305623,-0.35434045746363696,-0.4922600778356194
1788867452854866700,10.73286669921875,0.47171325663030145,-0.37547187362387774,-0.569493722304888
1788867452864828000,10.742827880859375,0.27175650147497654,-0.3707358580779284,-0.7383367791309953
1788867452874787800,10.752787841796875,0.050694414448738095,-0.36551658905968065,-0.9038744742687791
1788867452884747800,10.762747802734374,-0.17989947103261947,-0.36749446500390764,-1.1284498301129788
1788867452894708000,10.7727080078125,-0.42113808464705943,-0.39128384832702573,-1.311877256076038
1788867452904668000,10.78266796875,-0.5948439617365598,-0.42360557073913513,-1.4328751869373022
1788867452914627800,10.7926279296875,-0.6708715548843145,-0.4535338952086866,-1.511563085335493
1788867452924588000,10.802588134765625,-0.5740449193358421,-0.4794580986034125,-1.5301074806772172
1788867452934548000,10.8125478515625,-0.33728140530884265,-0.5112038477584719,-1.5166083860263229
1788867452944508000,10.8225078125,-0.03963116864264011,-0.5881273668326437,-1.5155857649803162
1788867452954467800,10.8324677734375,0.23455577484965323,-0.6489936312057077,-1.5452160563513635
1788867452964428800,10.8424287109375,0.29698212814629077,-0.7357601335760205,-1.5898329044520854
1788867452974388700,10.852388671875,0.23372166211307047,-0.7443377000462263,-1.6263275286346672
1788867452984348700,10.8623486328125,0.17874504030048846,-0.6358006068293005,-1.6595581825852392
1788867452994308900,10.872308837890625,0.13343991767466068,-0.4912040659766644,-1.667198175944388
1788867453004268800,10.882268798828125,0.13093816398680208,-0.35873394318222995,-1.628982865449041
1788867453014228700,10.892228759765626,0.06844985136985779,-0.2782973014205694,-1.614258759047836
1788867453024188700,10.902188720703125,0.013532850790023802,-0.2118380393460393,-1.6498416752129792
1788867453034148900,10.91214892578125,0.016963994282484053,-0.22693609362617134,-1.648989734558761
1788867453044108800,10.92210888671875,-0.010691489884257315,-0.31771387746445834,-1.538508959928155
1788867453054069800,10.93206982421875,0.04349427381157875,-0.2753208428930491,-1.4594041512921452
1788867453064030000,10.942030029296875,0.19402444249689577,-0.21370434467457233,-1.4435503102086484
1788867453073990000,10.951989990234376,0.28855156893134115,-0.1793345306262374,-1.4024774183250963
1788867453083949800,10.96194970703125,0.2872381482452154,-0.19258418056070803,-1.4372159926205872
1788867453093909800,10.97190966796875,0.29017127908766266,-0.10651515893526374,-1.3400886205598712
1788867453103870000,10.981869873046875,0.08403262042701244,-0.13066928391754626,-1.3384829389289021
1788867453113830000,10.991829833984376,-0.23325170651376245,-0.14221673304401336,-1.3671861785829067
1788867453123789800,11.001789794921875,-0.570081860923767,-0.1766835046608001,-1.372918877016008
1788867453133750000,11.01175,-0.8340583760470152,-0.14760003351755438,-1.347739135313034
1788867453143711000,11.0217109375,-1.0414695388615132,-0.04077295908890664,-1.3652159014232457
1788867453153671000,11.0316708984375,-1.1147563088685273,0.015578092882037162,-1.305461251553893
1788867453163630800,11.041630859375,-1.2196902630269526,0.19170199089869855,-1.2940376480028033
1788867453173590800,11.0515908203125,-1.385522045740485,0.4763664892636239,-1.3984341342836617
1788867453183550700,11.06155078125,-1.54081197617352,0.7281765465792268,-1.4314187045186757
1788867453193510700,11.0715107421875,-1.744804854977131,0.9507564177572727,-1.442188520336151
1788867453203470800,11.081470947265625,-1.9657605590194462,1.1763153047461061,-1.4518565123915672
1788867453213430800,11.0914306640625,-1.9777876814216375,1.5419526706412434,-1.5001611090943217
1788867453223390700,11.101390625,-1.66278298985064,1.6499407516732811,-1.393452546478808
1788867453233352000,11.11135205078125,-1.1355272942185402,1.514082666940987,-1.181984071097523
1788867453243311900,11.121311767578124,-0.49518356406688685,1.2840062294624746,-0.9789072842255234
1788867453253271800,11.131271728515625,0.272231133249402,0.9654870269645005,-0.7780795914545655
1788867453263231700,11.141231689453125,0.877291368573904,0.7862929277222603,-0.7136953090231866
1788867453273192000,11.15119189453125,1.4206564874857663,0.7647525654349475,-0.756071465525031
1788867453283152000,11.16115185546875,1.8076853817820548,0.5578749980404972,-0.7390214003942907
1788867453293111800,11.17111181640625,1.749230270203948,0.43602593024261294,-0.7812175972193479
1788867453303071700,11.18107177734375,1.3393553378492593,0.5235346292823553,-1.0221358928382396
1788867453313032000,11.191031982421874,0.5503536626249551,0.895377864080295,-1.3878206780716775
1788867453322993000,11.200992919921875,-0.2938379849016666,1.163002014990896,-1.5690771166712045
1788867453332952800,11.210952880859375,-0.2848252418845892,1.1385816402878612,-1.5086995125979183
1788867453342913000,11.2209130859375,-1.697670178836584,1.810078852789849,-1.620820455650985
1788867453352873000,11.230873046875,-2.2563503557801243,2.2075170590281483,-1.647121310338378
1788867453362833000,11.2408330078125,-2.571760705542564,2.3834745144367218,-1.3571671811327337
1788867453372792800,11.250792724609376,-2.5359710147589443,2.464616381858289,-1.0366128926105798
1788867453382752800,11.260752685546874,-2.2259043641120195,2.6011580649405714,-0.7790545739665627
1788867453392712700,11.270712646484375,-1.7039280701875685,2.66196967651695,-0.5717430721342563
1788867453402672600,11.280672607421875,-0.9692115273803472,2.7160838362812996,-0.6111950117524713
1788867453412633900,11.2906337890625,-0.30397125638127326,2.368731411074102,-0.5888018320281058
1788867453422593800,11.30059375,0.2274853980720043,1.749309326789528,-0.5858076186481863
1788867453432553700,11.3105537109375,0.5003630125313997,1.1277043455079196,-0.6635830053113401
1788867453442514000,11.320513916015624,0.511658898049593,0.7525372269842773,-0.7482624722745269
1788867453452473900,11.330473876953125,0.5321592497646809,0.5047917156938463,-0.8308248009532689
1788867453462433800,11.340433837890625,0.5644108295500279,0.36025260411687193,-0.7877652652971446
1788867453472393700,11.350393798828126,0.6512392181754112,0.38514680687673386,-0.7614897642467171
1788867453482354000,11.36035400390625,0.6803010620087385,0.43554947183728215,-0.6438882708907127
1788867453492313900,11.37031396484375,0.6183651225775479,0.5573635413870215,-0.5448994158070534
1788867453502273800,11.380273681640626,0.4892658644556999,0.6714572458177804,-0.46581754965521394
1788867453512235000,11.390235107421875,0.4213742314904928,0.7463247822102159,-0.3415159741386771
1788867453522195000,11.40019482421875,0.5105635040283203,0.695610347886756,-0.20278372220955787
1788867453532155000,11.41015478515625,0.6420663161605596,0.5372961742617189,-0.04608363271765411
1788867453542114800,11.42011474609375,0.7487363003313541,0.39326282024979586,0.10633622217178344
1788867453552075000,11.430074951171875,0.8159709306925534,0.3128057932872325,0.12663557142205537
1788867453562035000,11.440034912109375,0.8456541212946176,0.23474603672474623,0.1678054939392954
1788867453571995000,11.449994873046874,0.8125240051090716,0.07897562929838896,0.2333431111242622
1788867453581955000,11.459955078125,0.8123410497575998,0.08864230617955327,0.24375066950060426
1788867453591915000,11.4699150390625,0.7569073318272829,-0.03944119902849197,0.41809243334084745
1788867453601875700,11.479875732421876,0.711160310652852,-0.04870528645813465,0.5537704122658819
1788867453611836000,11.4898359375,0.6755015527725219,-0.05198474652022123,0.7148481323201209
1788867453621795800,11.4997958984375,0.6616495530307293,-0.034042408724874254,0.8668353679459542
1788867453631755800,11.509755859375,0.63926820987463,-0.024254881943017243,0.9829865894284099
1788867453641715700,11.5197158203125,0.6097936935871839,-0.0401245781827718,1.0448979058749974
1788867453651676000,11.529676025390625,0.5061638077646493,-0.1502810162298381,1.082685565542802
1788867453661635800,11.5396357421875,0.41036768430769444,-0.21656682143360376,1.1044679198924452
1788867453671595800,11.549595703125,0.3773404439747333,-0.2676644829209894,1.1667060571406036
1788867453681555700,11.5595556640625,0.3313315569937229,-0.3622714696586132,1.2434462555371224
1788867453691517000,11.569516845703125,0.33143735545575614,-0.40953189107067883,1.3410671102032066
1788867453701476900,11.579476806640624,0.3680354400128126,-0.37339492121934886,1.4552325646959243
1788867453711436800,11.589436767578125,0.4084861083447933,-0.2924355707578361,1.5471309500619768
1788867453721397000,11.59939697265625,0.3912666779965162,-0.2907579929344356,1.6213449179165065
1788867453731357000,11.60935693359375,0.2851782931059599,-0.3344416518382728,1.6568518462359905
1788867453741316900,11.61931689453125,0.15212240631282328,-0.3687034024022519,1.6547390918657183
1788867453751276800,11.62927685546875,0.10604279218316078,-0.41378319183960555,1.6520175579473375
1788867453761237000,11.639237060546876,0.17234160299897192,-0.4750957386754453,1.6896756729513405
1788867453771197000,11.649197021484374,0.2584825938820839,-0.5557987762883305,1.7122420172855257
1788867453781157600,11.65915771484375,0.34288872379660607,-0.6101129886694252,1.6838379067085683
1788867453791117800,11.669117919921876,0.3339923006355762,-0.692740710734576,1.6052490847706793
1788867453801077800,11.679077880859374,0.2342430556386709,-0.826694715411216,1.5036045275464653
1788867453811037700,11.68903759765625,0.07316869658529758,-0.9365954981967807,1.4163698962077498
1788867453820998000,11.698997802734375,-0.07260638652741909,-0.9772643393240869,1.3422493057250975
1788867453830957800,11.708957763671876,-0.07287351303100585,-0.9654662033721804,1.3631922866411506
1788867453840917800,11.718917724609375,-0.27492753272652626,-0.9450253267593681,1.1448141780018806
1788867453850878000,11.7288779296875,-0.22029344074130058,-0.9260112680792808,1.014923915632814
1788867453860838000,11.738837890625,-0.1652852547466755,-0.9269372968830167,0.8264064730543643
1788867453870799000,11.748799072265625,-0.16998481073975563,-0.9788179985068738,0.668047875765711
1788867453880759000,11.758759033203125,-0.21106734723448753,-1.0769900573149322,0.5780665760673582
1788867453890719000,11.768718994140626,-0.2885065607458353,-1.2803574976965784,0.6464107751056551
1788867453900679000,11.778678955078124,-0.2212947267383337,-1.2996597256682811,0.5330309910979122
1788867453910639000,11.78863916015625,-0.1651572444528341,-1.2503135109581052,0.1896472868585959
1788867453920599000,11.79859912109375,-0.4062304383724928,-1.262629241043329,-0.2081074745155871
1788867453930559000,11.80855908203125,-0.890497471627593,-1.2595492490760982,-0.5763047540266066
1788867453940519000,11.818518798828125,-1.4721744932770728,-1.0640466968506574,-0.8637545722611248
1788867453950479000,11.82847900390625,-1.9536171167612075,-0.7862462390363216,-0.9568264583859593
1788867453960439000,11.83843896484375,-2.1832570625185963,-0.4587688732527196,-0.9193550250604748
1788867453970399700,11.848399658203125,-2.1515479190468785,-0.13276523328348994,-0.8457838120888919
1788867453980360000,11.85835986328125,-1.9390385563105343,0.07139204230159521,-0.7062500345185398
1788867453990319900,11.86831982421875,-1.7161574371635913,0.40301805219724773,-0.6999854211658239
1788867454000279800,11.87827978515625,-1.3992080412656067,0.486387970931828,-0.5649857798937707
1788867454010240000,11.888239990234375,-1.0029004464924336,0.48708311358913775,-0.47496451351121066
1788867454020200000,11.898199951171875,-0.7142857491970062,0.5892787288248539,-0.4607898942189291
1788867454030160000,11.908159912109374,-0.4006429936289787,0.7581579164102673,-0.4772557297209277
1788867454040119800,11.918119873046875,0.003796469673514366,0.855227566934377,-0.46863359345663336
1788867454050080000,11.928080078125,0.4392822286248207,0.8217538980081677,-0.434766504766047
1788867454060041000,11.938041015625,0.8171236078590154,0.748280519387871,-0.41926549570821225
1788867454070001000,11.9480009765625,1.1562807439118623,0.6599456717222929,-0.4551962389303371
1788867454079961000,11.957961181640625,1.2924445335924624,0.562394521291554,-0.5258695750359446
1788867454089921000,11.967921142578126,1.1885352463066576,0.4806843524627387,-0.6225711959652602
1788867454099881000,11.977880859375,0.8875070576399564,0.49774201637804505,-0.7435798674162477
1788867454109841000,11.9878408203125,0.6215022515594959,0.5045183786451817,-0.8389440291967243
1788867454119801000,11.997801025390626,0.4828431379318237,0.5495097591467202,-0.8316212850932031
1788867454129761000,12.007760986328124,0.3791343416541815,0.637297640454024,-0.7941472214192151
1788867454139721000,12.017720947265625,0.2544862177222967,0.7403326291233301,-0.7572074107524007
1788867454149682000,12.027681884765625,0.13697569058537482,0.8528077924415469,-0.7514726664926856
1788867454159641900,12.037641845703124,0.0029267011016607283,0.8931339576110243,-0.7605351669356226
1788867454169601800,12.047601806640625,-0.0438186834603548,0.9067848818227648,-0.7542438117064535
1788867454179562000,12.05756201171875,-0.0170142631649971,0.9144511786669492,-0.7294757195442915
1788867454189522000,12.06752197265625,0.195723063108325,0.885237213011831,-0.6751327194601296
1788867454199481900,12.07748193359375,0.5652987183004617,0.8138890098519623,-0.5745762132009491
1788867454209441800,12.08744189453125,0.9524632216751575,0.6905563524328172,-0.4900167924208566
1788867454219402000,12.097402099609376,1.244654608413577,0.5177218513503671,-0.43079190204665063
1788867454229362000,12.10736181640625,1.442418237438798,0.3495142794162035,-0.4027749276237562
1788867454239323000,12.117322998046875,1.5254203457742928,0.20310893557593226,-0.3731111723745242
1788867454249283000,12.127282958984376,1.5799895558297634,0.10883841425105929,-0.2926416877891868
1788867454259243000,12.137242919921874,1.5323323171198366,0.14464374099522828,-0.41488424841668453
1788867454269203000,12.147202880859375,1.4103010976880788,0.07097483980283141,-0.39317609181441365
1788867454279163000,12.157162841796875,1.2784347129404543,0.02972673748284578,-0.339081623131223
1788867454289123000,12.167123046875,1.081084340891242,0.09779752640724182,-0.3230779252482578
1788867454299083000,12.1770830078125,0.8438426879584788,0.23246800879016516,-0.2968224075399339
1788867454309043000,12.18704296875,0.6732417911469936,0.3430743094965815,-0.2489194869732484
1788867454319003000,12.1970029296875,0.5677396817117929,0.4026115172229707,-0.21498963524475692
1788867454328964000,12.206964111328125,0.5214812038838863,0.3755155666351318,-0.14732433098186737
1788867454338924000,12.216924072265625,0.527567245799303,0.3111944856330752,-0.1444466475205496
1788867454348884000,12.226884033203126,0.46893034791350363,0.2634650584697723,-0.16157405220381915
1788867454358844200,12.23684423828125,0.36807752558887,0.2340864037722349,-0.20852456741649655
1788867454368804000,12.24680419921875,0.24096038119494914,0.19925679019242523,-0.25287984197158364
1788867454378764000,12.256763916015625,0.12423311339020729,0.1807752309538424,-0.2849921411504038
1788867454388724000,12.266723876953124,0.06372866806685924,0.1477702024526894,-0.3226547314001247
1788867454398684000,12.276683837890625,0.12029051324427127,0.0661627633459866,-0.3427632707860321
1788867454408643800,12.286643798828125,0.28074703266024587,-0.0641388563029468,-0.33008243371546264
1788867454418603800,12.296603759765626,0.44575522403120993,-0.21091478702127933,-0.32556656372621656
1788867454428565000,12.30656494140625,0.4986030171215534,-0.35531317495331166,-0.37969069689530877
1788867454438525000,12.31652490234375,0.48173371538519855,-0.45768838453963395,-0.48638238144125784
1788867454448484900,12.32648486328125,0.38367023151814933,-0.5533404233507812,-0.6047152578117325
1788867454458445000,12.336445068359374,0.22943127144277095,-0.6556526507034898,-0.6727464819107204
1788867454468405000,12.346405029296875,0.05238076010048389,-0.6884212401002645,-0.7418042360458522
1788867454478365000,12.356364990234376,-0.09115560417473316,-0.6420296374119818,-0.7864514062196016
1788867454488324900,12.366324951171874,-0.2720008316248655,-0.5745011386707425,-0.809660067045316
1788867454498285000,12.37628515625,-0.4394207603126764,-0.4788499766424298,-0.8678518515121191
1788867454508245000,12.386244873046875,-0.6234001941353082,-0.4360751031465828,-0.9613357525039463
1788867454518206000,12.3962060546875,-0.7279203067958354,-0.4677138117305934,-1.0385095930773764
