time,seconds_elapsed,z,y,x
1788867442177628700,0.055628662109375,0.1183379516005516,-0.2298254668712616,0.0014956612139940262
1788867442187588600,0.065588623046875,0.1048661321401596,-0.14080628752708435,-0.06050475314259529
1788867442197548500,0.075548583984375,0.09139613062143326,-0.055217090994119644,-0.12193163484334946
1788867442207508700,0.0855087890625,0.07916978001594543,0.005257881246507168,-0.1744450032711029
1788867442217468700,0.09546875,0.06817039102315903,0.044018592685461044,-0.1983759105205536
1788867442227428600,0.1054287109375,0.049585044384002686,0.05281408876180649,-0.19709539413452148
1788867442237388500,0.115388427734375,0.029314396902918816,0.0434940904378891,-0.17502950131893158
1788867442247348700,0.1253486328125,0.020428642630577087,0.03344219923019409,-0.1382463574409485
1788867442257308700,0.13530859375,0.024681977927684784,0.02550012245774269,-0.10127557069063187
1788867442267269600,0.14526953125,0.03430979326367378,0.013501571491360664,-0.0756547600030899
1788867442277229800,0.155229736328125,0.04182283952832222,-0.0008741721976548433,-0.05999617278575897
1788867442287189800,0.165189697265625,0.04117695987224579,-0.012036509811878204,-0.05699699744582176
1788867442297149700,0.175149658203125,0.035977136343717575,-0.019270453602075577,-0.06507650017738342
1788867442307110000,0.18510986328125,0.02853303775191307,-0.006553578190505505,-0.07133723050355911
1788867442317069800,0.19506982421875,0.019731024280190468,0.023445867002010345,-0.07687393575906754
1788867442327029800,0.20502978515625,0.017027486115694046,0.053835730999708176,-0.07787560671567917
1788867442336989700,0.21498974609375,0.020037125796079636,0.07159369438886642,-0.079886294901371
1788867442346950000,0.224949951171875,0.025934580713510513,0.0810723602771759,-0.07658868283033371
1788867442356910600,0.23491064453125,0.0310803409665823,0.10026762634515762,-0.06709584593772888
1788867442366870500,0.24487060546875,0.024393577128648758,0.10400551557540894,-0.0584954097867012
1788867442376830700,0.254830810546875,0.01677400805056095,0.0828339159488678,-0.05721576139330864
1788867442386790700,0.264790771484375,0.01528459694236517,0.06228242442011833,-0.06076125055551529
1788867442396750600,0.27475048828125,0.014646237716078758,0.05058741942048073,-0.06447582691907883
1788867442406710500,0.28471044921875,0.0085593918338418,0.03724606707692146,-0.0691474974155426
1788867442416670700,0.294670654296875,0.0009323647245764732,0.05887466296553612,-0.0651325136423111
1788867442426630700,0.304630615234375,-0.008427186869084835,0.060689445585012436,-0.059290457516908646
1788867442436590600,0.314590576171875,-0.0140837412327528,0.04704447463154793,-0.05716525390744209
1788867442446551800,0.3245517578125,-0.015161276794970036,0.036966610699892044,-0.05942142382264137
1788867442456511700,0.33451171875,-0.015311479568481445,0.03700575977563858,-0.05862034484744072
1788867442466471700,0.3444716796875,-0.017094604671001434,0.05597130209207535,-0.05317109823226929
1788867442476431600,0.354431640625,-0.021860597655177116,0.05226018652319908,-0.04681972786784172
1788867442486391800,0.364391845703125,-0.023733172565698624,0.03574654459953308,-0.04479780048131943
1788867442496351700,0.374351806640625,-0.015554871410131454,0.020962808281183243,-0.05155210942029953
1788867442506311700,0.384311767578125,-0.010745178908109665,0.011392665095627308,-0.055107492953538895
1788867442516271900,0.39427197265625,-0.01332897786051035,-0.0009004869498312473,-0.06315422803163528
1788867442526231800,0.404231689453125,-0.021093256771564484,-0.020344436168670654,-0.08112868666648865
1788867442536192800,0.41419287109375,-0.025476019829511642,-0.009688328951597214,-0.08778845518827438
1788867442546152700,0.424152587890625,-0.026079129427671432,-0.0028183155227452517,-0.0945047065615654
1788867442556112600,0.434112548828125,-0.01672876998782158,0.018277648836374283,-0.0873115062713623
1788867442566072600,0.444072509765625,-0.0023853906895965338,0.06312245875597,-0.0687752217054367
1788867442576032500,0.454032470703125,0.014408503659069538,0.09857339411973953,-0.049741875380277634
1788867442585992700,0.46399267578125,0.027545034885406494,0.10224239528179169,-0.04122202843427658
1788867442595952600,0.47395263671875,0.03313155099749565,0.08088517189025879,-0.049074091017246246
1788867442605912600,0.48391259765625,0.021526888012886047,0.05097224563360214,-0.0629485547542572
1788867442615872500,0.49387255859375,-0.000629813177511096,0.027041083201766014,-0.07612507790327072
1788867442625833700,0.503833740234375,-0.00951825175434351,0.020386481657624245,-0.08884631097316742
1788867442635793700,0.513793701171875,0.001739729312248528,0.03787892311811447,-0.1057608500123024
1788867442645753600,0.523753662109375,0.026602404192090034,0.05511786788702011,-0.12986865639686584
1788867442655713800,0.5337138671875,0.06848567724227905,0.06027774140238762,-0.16731376945972443
1788867442665673700,0.543673828125,0.11804729700088501,0.06358657777309418,-0.21313752233982086
1788867442675633700,0.553633544921875,0.1453114151954651,0.06009170785546303,-0.24837566912174225
1788867442685593900,0.56359375,0.15869919955730438,0.05365531146526337,-0.2697722911834717
1788867442695553800,0.5735537109375,0.17144827544689178,0.06204613298177719,-0.28302523493766785
1788867442705513700,0.583513671875,0.19468528032302856,0.1072944775223732,-0.2799714207649231
1788867442715474700,0.593474609375,0.21538496017456055,0.15215009450912476,-0.2780209183692932
1788867442725435000,0.603434814453125,0.23468017578125,0.197146937251091,-0.2781197130680084
1788867442735394800,0.613394775390625,0.2420286387205124,0.230769082903862,-0.29466408491134644
1788867442745354800,0.623354736328125,0.24789007008075714,0.2435431033372879,-0.33037784695625305
1788867442755315000,0.63331494140625,0.2516493797302246,0.23525241017341614,-0.37694960832595825
1788867442765275000,0.64327490234375,0.24584756791591644,0.21507807075977325,-0.4172854721546173
1788867442775234800,0.65323486328125,0.23454031348228455,0.1764555722475052,-0.44515305757522583
1788867442785194800,0.66319482421875,0.22755268216133118,0.14686574041843414,-0.45197731256484985
1788867442795154700,0.67315478515625,0.223903626203537,0.12152735888957977,-0.44815486669540405
1788867442805115600,0.68311572265625,0.2181725800037384,0.09597434103488922,-0.4491758942604065
1788867442815075600,0.69307568359375,0.2193416953086853,0.07409247756004333,-0.4593963027000427
1788867442825035800,0.703035888671875,0.21504727005958557,0.07918278127908707,-0.46486032009124756
1788867442834995700,0.71299560546875,0.203212171792984,0.08544440567493439,-0.4697869122028351
1788867442844955100,0.722955078125,0.1858096569776535,0.10084325820207596,-0.45965278148651123
1788867442854915300,0.732915283203125,0.1738547384738922,0.10856908559799194,-0.44286873936653137
1788867442864875300,0.742875244140625,0.1671764850616455,0.09926021844148636,-0.4202946424484253
1788867442874835200,0.752835205078125,0.15548281371593475,0.08704190701246262,-0.3933016359806061
1788867442884795100,0.762795166015625,0.13774468004703522,0.08138306438922882,-0.35798370838165283
1788867442894756400,0.77275634765625,0.11432217806577682,0.08450961858034134,-0.3237037658691406
1788867442904716300,0.78271630859375,0.09596375375986099,0.10773372650146484,-0.2922821640968323
1788867442914676200,0.79267626953125,0.08139493316411972,0.1351994276046753,-0.2687952220439911
1788867442924636400,0.802636474609375,0.07496020197868347,0.14571057260036469,-0.2589106261730194
1788867442934596400,0.812596435546875,0.06944532692432404,0.13937996327877045,-0.24586431682109833
1788867442944556300,0.822556396484375,0.06414460390806198,0.1228523850440979,-0.2258497029542923
1788867442954516200,0.83251611328125,0.05214439705014229,0.10361530631780624,-0.19824336469173431
1788867442964476400,0.842476318359375,0.036189720034599304,0.07448440790176392,-0.17195972800254822
1788867442974436400,0.852436279296875,0.016957437619566917,0.0457768589258194,-0.15606892108917236
1788867442984397000,0.86239697265625,-0.00020519920508377254,0.027425289154052734,-0.14707572758197784
1788867442994357200,0.872357177734375,-0.01026981696486473,0.015280208550393581,-0.14558090269565582
1788867443004317200,0.882317138671875,-0.005812952294945717,0.016146764159202576,-0.14878860116004944
1788867443014277000,0.892277099609375,0.002634860575199127,0.01355044823139906,-0.15512453019618988
1788867443024237000,0.902237060546875,0.009227686561644077,0.00031840684823691845,-0.16142155230045319
1788867443034197200,0.912197265625,0.01450793631374836,-0.016599589958786964,-0.1686999797821045
1788867443044157200,0.9221572265625,0.020721377804875374,-0.034625086933374405,-0.1739954650402069
1788867443054117000,0.9321171875,0.029826192185282707,-0.046184539794921875,-0.17584796249866486
1788867443064077300,0.942077392578125,0.038588013499975204,-0.05101567134261131,-0.16980025172233582
1788867443074038300,0.952038330078125,0.040031448006629944,-0.04894746094942093,-0.15329638123512268
1788867443083998200,0.961998291015625,0.04331545531749725,-0.03987517207860947,-0.1351122409105301
1788867443093958400,0.97195849609375,0.050128620117902756,-0.02629384770989418,-0.11811940371990204
1788867443103918300,0.98191845703125,0.061578504741191864,0.000556406332179904,-0.10051959753036499
1788867443113878300,0.991878173828125,0.07618647813796997,0.029648244380950928,-0.0818265974521637
1788867443123838200,1.001838134765625,0.08245937526226044,0.047385767102241516,-0.07429463416337967
1788867443133798400,1.01179833984375,0.08511508256196976,0.05286335572600365,-0.07796712964773178
1788867443143758300,1.02175830078125,0.08713187277317047,0.05029267445206642,-0.08771929889917374
1788867443153718300,1.03171826171875,0.08040552586317062,0.038341738283634186,-0.10154163837432861
1788867443163679500,1.041679443359375,0.0634734034538269,0.023428520187735558,-0.11190609633922577
1788867443173639400,1.051639404296875,0.038373906165361404,0.007609076797962189,-0.11927638947963715
1788867443183599400,1.061599365234375,0.02374747395515442,-0.002100788988173008,-0.12379339337348938
1788867443193559300,1.071559326171875,0.016639230772852898,0.004860181361436844,-0.12059973180294037
1788867443203519200,1.081519287109375,0.010722357779741287,0.008496089838445187,-0.11260293424129486
1788867443213479200,1.091479248046875,0.0019453780259937048,0.01714630238711834,-0.10137957334518433
1788867443223439000,1.101439208984375,-0.00022128314594738185,0.02532990835607052,-0.10041337460279465
1788867443233399000,1.11139892578125,0.0008413181640207767,0.023549584671854973,-0.11321545392274857
1788867443243359200,1.121359130859375,-0.002049458911642432,0.015347478911280632,-0.13694234192371368
1788867443253320200,1.1313203125,-0.01688299886882305,0.002075349446386099,-0.15801405906677246
1788867443263280000,1.141280029296875,-0.034718625247478485,-0.014944521710276604,-0.17137305438518524
1788867443273240300,1.151240234375,-0.05357354134321213,-0.030128000304102898,-0.1772059053182602
1788867443283200300,1.1612001953125,-0.05911814793944359,-0.03313858062028885,-0.17401492595672607
1788867443293160200,1.17116015625,-0.054591573774814606,-0.015674635767936707,-0.1578039973974228
1788867443303120400,1.181120361328125,-0.04222290962934494,0.005815004929900169,-0.13155628740787506
1788867443313080300,1.191080322265625,-0.026169374585151672,0.02597939595580101,-0.10092434287071228
1788867443323040300,1.201040283203125,-0.002053314121440053,0.035934045910835266,-0.07178693264722824
1788867443333000200,1.211000244140625,0.01988527551293373,0.03709118813276291,-0.049304790794849396
1788867443342960400,1.22096044921875,0.03986693546175957,0.03797733411192894,-0.03814391419291496
1788867443352921300,1.23092138671875,0.04326779395341873,0.02890900708734989,-0.03552469611167908
1788867443362881300,1.24088134765625,0.03784887120127678,0.013092510402202606,-0.034928902983665466
1788867443372841500,1.250841552734375,0.03262188285589218,0.006489201914519072,-0.0296648982912302
1788867443382801400,1.260801513671875,0.03184673190116882,-0.0010689906775951385,-0.022332439199090004
1788867443392761300,1.27076123046875,0.028666650876402855,-0.013730723410844803,-0.019762756302952766
1788867443402721300,1.28072119140625,0.022419631481170654,-0.03294520080089569,-0.02259276993572712
1788867443412681200,1.29068115234375,0.00897812657058239,-0.06655748933553696,-0.030869076028466225
1788867443422641200,1.30064111328125,-0.002093518851324916,-0.08199803531169891,-0.034801509231328964
1788867443432602000,1.31060205078125,-0.004320986568927765,-0.06891205906867981,-0.03049571067094803
1788867443442562300,1.320562255859375,-0.0026156888343393803,-0.030057944357395172,-0.02890469878911972
1788867443452522200,1.330522216796875,0.004664061591029167,0.031177714467048645,-0.02631797082722187
1788867443462482200,1.340482177734375,0.016825206577777863,0.09438791126012802,-0.026133401319384575
1788867443472442000,1.350442138671875,0.03034021519124508,0.14084702730178833,-0.028539301827549934
1788867443482402300,1.36040234375,0.04389916732907295,0.17331556975841522,-0.03323205187916756
1788867443492362200,1.3703623046875,0.05663946270942688,0.17210809886455536,-0.033756695687770844
1788867443502322200,1.380322265625,0.062278591096401215,0.1381671279668808,-0.03660539537668228
1788867443512282400,1.390282470703125,0.06115153804421425,0.0900786966085434,-0.03876868262887001
1788867443522242300,1.4002421875,0.05475547909736633,0.02923593670129776,-0.04070788994431496
1788867443532203300,1.410203369140625,0.04564081132411957,-0.020840279757976532,-0.04723476618528366
1788867443542163500,1.42016357421875,0.030224313959479332,-0.06017512083053589,-0.0667690858244896
1788867443552123400,1.430123291015625,0.021330421790480614,-0.07810857892036438,-0.09281958639621735
1788867443562083300,1.440083251953125,0.016094563528895378,-0.07164932787418365,-0.11893375217914581
1788867443572043300,1.450043212890625,0.016031445935368538,-0.05087960511445999,-0.1374341994524002
1788867443582003500,1.46000341796875,0.02062792330980301,-0.01314943004399538,-0.13959547877311707
1788867443591963400,1.46996337890625,0.04122294485569,0.04194417968392372,-0.12304552644491196
1788867443601923300,1.47992333984375,0.07224079966545105,0.09284422546625137,-0.0900580883026123
1788867443611883300,1.48988330078125,0.10246874392032623,0.13488462567329407,-0.05181349441409111
1788867443621844200,1.49984423828125,0.12415119260549545,0.15322935581207275,-0.01863066852092743
1788867443631804200,1.50980419921875,0.1372094750404358,0.14714589715003967,0.003751602955162525
1788867443641764000,1.51976416015625,0.1413809210062027,0.11343502253293991,0.013553718104958534
1788867443651724300,1.529724365234375,0.1407758593559265,0.07964669913053513,0.015200883150100708
1788867443661684200,1.539684326171875,0.14013394713401794,0.06614886969327927,0.02249050885438919
1788867443671644200,1.54964404296875,0.1465953141450882,0.08120904862880707,0.04031717777252197
1788867443681604400,1.559604248046875,0.1585906744003296,0.11238358914852142,0.06358478218317032
1788867443691564300,1.569564208984375,0.1760714054107666,0.15569829940795898,0.09018363803625107
1788867443701524200,1.579524169921875,0.19497978687286377,0.1990499645471573,0.11001399159431458
1788867443711485200,1.589485107421875,0.21336466073989868,0.2223110795021057,0.10966192185878754
1788867443721445400,1.5994453125,0.22065483033657074,0.22915714979171753,0.0915677398443222
1788867443731405300,1.6094052734375,0.21495673060417175,0.20788221061229706,0.05796770006418228
1788867443741365200,1.619365234375,0.19520461559295654,0.14884984493255615,0.017459126189351082
1788867443751325400,1.629325439453125,0.16561102867126465,0.052281759679317474,-0.01967226341366768
1788867443761285400,1.639285400390625,0.13354270160198212,-0.04740264639258385,-0.04848511889576912
1788867443771245300,1.649245361328125,0.10085746645927429,-0.1339748203754425,-0.0752996876835823
1788867443781205200,1.659205322265625,0.06897236406803131,-0.21427056193351746,-0.10372855514287949
1788867443791165400,1.66916552734375,0.04625933617353439,-0.25878530740737915,-0.12240050733089447
1788867443801126100,1.679126220703125,0.03492450714111328,-0.2672426402568817,-0.12720812857151031
1788867443811086000,1.689086181640625,0.057384274899959564,-0.21954703330993652,-0.09523341804742813
1788867443821046300,1.69904638671875,0.09070899337530136,-0.12304943054914474,-0.0330066904425621
1788867443831006200,1.709006103515625,0.14803247153759003,-0.02037498913705349,0.04992334544658661
1788867443840966000,1.7189658203125,0.21761548519134521,0.08536972105503082,0.15179340541362762
1788867443850926000,1.728926025390625,0.2856382131576538,0.18953447043895721,0.2468608021736145
1788867443860886000,1.738885986328125,0.33432039618492126,0.23373325169086456,0.32219773530960083
1788867443870846000,1.748845947265625,0.3676719665527344,0.23963695764541626,0.3760356903076172
1788867443880806100,1.75880615234375,0.40342476963996887,0.2305053472518921,0.4193587899208069
1788867443890767000,1.76876708984375,0.42209112644195557,0.18174418807029724,0.43829014897346497
1788867443900727000,1.77872705078125,0.42139607667922974,0.08451634645462036,0.43428635597229004
1788867443910687200,1.788687255859375,0.3962997794151306,-0.03865111619234085,0.41513076424598694
1788867443920647200,1.798647216796875,0.353708416223526,-0.15726828575134277,0.3941349685192108
1788867443930607000,1.808607177734375,0.3048527240753174,-0.23349541425704956,0.38668718934059143
1788867443940567000,1.818567138671875,0.2711741328239441,-0.23282048106193542,0.3967246413230896
1788867443950527200,1.82852734375,0.24169187247753143,-0.17774711549282074,0.4162730276584625
1788867443960487200,1.838487060546875,0.20813186466693878,-0.10913802683353424,0.42713239789009094
1788867443970447000,1.848447021484375,0.17563650012016296,-0.06793732941150665,0.4242023825645447
1788867443980408000,1.858407958984375,0.13881011307239532,-0.03791011497378349,0.4103987216949463
1788867443990368000,1.868367919921875,0.09811143577098846,-0.02470296621322632,0.3814448118209839
1788867444000328000,1.878327880859375,0.062213435769081116,-0.008866673335433006,0.33661529421806335
1788867444010288000,1.8882880859375,0.021517673507332802,-0.014199119992554188,0.26380500197410583
1788867444020248000,1.898248046875,-0.025806410238146782,-0.05295972898602486,0.15937946736812592
1788867444030208000,1.9082080078125,-0.0717395469546318,-0.12100748717784882,0.038008034229278564
1788867444040168000,1.91816796875,-0.11239002645015717,-0.21383032202720642,-0.07731166481971741
1788867444050128000,1.9281279296875,-0.16008271276950836,-0.3094433844089508,-0.16842374205589294
1788867444060088000,1.938088134765625,-0.2217160314321518,-0.36005911231040955,-0.22503094375133514
1788867444070049000,1.948049072265625,-0.28754934668540955,-0.37002038955688477,-0.2571084499359131
1788867444080009000,1.958009033203125,-0.32299551367759705,-0.33745238184928894,-0.25742053985595703
1788867444089969200,1.96796923828125,-0.3121285140514374,-0.2548917233943939,-0.220305934548378
1788867444099929000,1.97792919921875,-0.26599830389022827,-0.13609597086906433,-0.1472679227590561
1788867444109889000,1.987888916015625,-0.18571411073207855,-0.0003434757236391306,-0.05420855060219765
1788867444119849200,1.99784912109375,-0.09054266661405563,0.13397112488746643,0.03647579997777939
1788867444129809200,2.00780908203125,-0.010759156197309494,0.23425857722759247,0.09153185784816742
1788867444139769000,2.01776904296875,0.04924985393881798,0.28409191966056824,0.09811679273843765
1788867444149729000,2.02772900390625,0.09088917821645737,0.2881159484386444,0.0708838403224945
1788867444159690200,2.037690185546875,0.09568911790847778,0.2481374740600586,0.019666876643896103
1788867444169650200,2.047650146484375,0.08169446885585785,0.17388960719108582,-0.03817937895655632
1788867444179610000,2.057610107421875,0.04985993728041649,0.08825206756591797,-0.09154169261455536
1788867444189570300,2.0675703125,0.017153926193714142,0.007623263169080019,-0.13079215586185455
1788867444199530200,2.0775302734375,-0.002612217329442501,-0.04816969111561775,-0.15398035943508148
1788867444209490200,2.087490234375,0.0010427049128338695,-0.08011191338300705,-0.1658833622932434
1788867444219450000,2.0974501953125,0.016662772744894028,-0.10154970735311508,-0.17015135288238525
1788867444229410000,2.10741015625,0.038483116775751114,-0.1167270615696907,-0.17207789421081543
1788867444239370000,2.117369873046875,0.059044938534498215,-0.12250018864870071,-0.16548122465610504
1788867444249331000,2.1273310546875,0.07501937448978424,-0.11284622550010681,-0.1502910852432251
1788867444259291100,2.137291015625,0.08163993805646896,-0.08981449902057648,-0.1280551254749298
1788867444269251000,2.1472509765625,0.08458805829286575,-0.0720520168542862,-0.09747245162725449
1788867444279211000,2.1572109375,0.08424729853868484,-0.06936594098806381,-0.06517082452774048
1788867444289171200,2.167171142578125,0.07707327604293823,-0.07953841984272003,-0.03768566995859146
1788867444299131100,2.177131103515625,0.07347586005926132,-0.10637545585632324,-0.02020435221493244
1788867444309091000,2.187091064453125,0.06456838548183441,-0.1537613421678543,-0.01645621843636036
1788867444319051000,2.197051025390625,0.05204380676150322,-0.21395118534564972,-0.024252090603113174
1788867444329011200,2.20701123046875,0.03961403667926788,-0.2677270770072937,-0.029845261946320534
1788867444338972200,2.21697216796875,0.018144698813557625,-0.3131764233112335,-0.019374778494238853
1788867444348932000,2.22693212890625,-0.012444369494915009,-0.322186142206192,0.00868455320596695
1788867444358892300,2.236892333984375,-0.037943415343761444,-0.32184651494026184,0.04812486469745636
1788867444368852200,2.246852294921875,-0.06312919408082962,-0.3076385259628296,0.0862855613231659
1788867444378812200,2.256812255859375,-0.08236043155193329,-0.2889864146709442,0.1130509302020073
1788867444388772000,2.266772216796875,-0.10386812686920166,-0.2545810341835022,0.12734279036521912
1788867444398732300,2.276732177734375,-0.12281361222267151,-0.19862821698188782,0.12963822484016418
1788867444408692200,2.286692138671875,-0.14129993319511414,-0.12932157516479492,0.12551379203796387
1788867444418652200,2.296652099609375,-0.15079832077026367,-0.056697405874729156,0.11732976883649826
1788867444428613000,2.306613037109375,-0.15686607360839844,0.012259026989340782,0.11749541759490967
1788867444438573000,2.316572998046875,-0.16285017132759094,0.0699387639760971,0.1278129667043686
1788867444448533000,2.326532958984375,-0.162155881524086,0.10103064030408859,0.13842301070690155
1788867444458493000,2.336492919921875,-0.16452428698539734,0.049566879868507385,0.11818070709705353
1788867444468453000,2.346453125,-0.18814171850681305,-0.08872254937887192,0.06169905513525009
1788867444478413000,2.3564130859375,-0.23279336094856262,-0.22518151998519897,-0.005266863387078047
1788867444488373000,2.366373046875,-0.2865479588508606,-0.3090388774871826,-0.06862186640501022
1788867444498333200,2.376333251953125,-0.347467303276062,-0.3124765455722809,-0.12125179916620255
1788867444508293000,2.386293212890625,-0.3961775600910187,-0.2422575205564499,-0.15377192199230194
1788867444518254000,2.396254150390625,-0.41905444860458374,-0.1644114851951599,-0.18591561913490295
1788867444528214300,2.40621435546875,-0.41970720887184143,-0.12724468111991882,-0.2137235403060913
1788867444538174200,2.41617431640625,-0.40748777985572815,-0.10369376838207245,-0.22847962379455566
1788867444548134100,2.426134033203125,-0.39840880036354065,-0.0820651724934578,-0.2348048985004425
1788867444558094000,2.436093994140625,-0.371317982673645,-0.030985094606876373,-0.21680746972560883
1788867444568054300,2.44605419921875,-0.3243137300014496,0.05770642310380936,-0.16860505938529968
1788867444578014200,2.45601416015625,-0.2732084095478058,0.15395192801952362,-0.10987672954797745
1788867444587974100,2.46597412109375,-0.22926785051822662,0.20957045257091522,-0.06135419383645058
1788867444597934000,2.47593408203125,-0.18490837514400482,0.2183484435081482,-0.027344530448317528
1788867444607895000,2.48589501953125,-0.13809187710285187,0.1843198984861374,0.00002557411789894104
1788867444617855000,2.49585498046875,-0.09384369850158691,0.11386927962303162,0.02555323950946331
1788867444627815000,2.50581494140625,-0.06476064771413803,0.02036835439503193,0.04244460165500641
1788867444637775000,2.515775146484375,-0.04402295500040054,-0.08953117579221725,0.03705405816435814
1788867444647735000,2.525735107421875,-0.051142383366823196,-0.19968804717063904,-0.0007641585543751717
1788867444657695000,2.535695068359375,-0.0793251022696495,-0.2936771810054779,-0.05267450213432312
1788867444667655000,2.545655029296875,-0.11922218650579453,-0.33259662985801697,-0.09002800285816193
1788867444677615000,2.555614990234375,-0.1680491864681244,-0.3227677047252655,-0.10554468631744385
1788867444687575000,2.565574951171875,-0.21387766301631927,-0.2794332802295685,-0.09212901443243027
1788867444697536000,2.575535888671875,-0.25037580728530884,-0.21432362496852875,-0.057347171008586884
1788867444707496200,2.58549609375,-0.2694813311100006,-0.14023847877979279,-0.010778870433568954
1788867444717456100,2.5954560546875,-0.2721989154815674,-0.07422155141830444,0.0316900797188282
1788867444727416000,2.605416015625,-0.267145037651062,-0.0372435636818409,0.06239579617977142
1788867444737376300,2.615376220703125,-0.2549975514411926,-0.02523520588874817,0.0769573301076889
1788867444747336200,2.625336181640625,-0.24207428097724915,-0.05171448364853859,0.07680313289165497
1788867444757296000,2.635296142578125,-0.2317335307598114,-0.10551942884922028,0.06848834455013275
1788867444767256000,2.645256103515625,-0.22313551604747772,-0.17824102938175201,0.06352473795413971
1788867444777216300,2.65521630859375,-0.21702373027801514,-0.24266411364078522,0.06909844279289246
1788867444787176200,2.66517626953125,-0.21479173004627228,-0.2846163809299469,0.08671072870492935
1788867444797137000,2.675136962890625,-0.21548479795455933,-0.2934665083885193,0.11234131455421448
1788867444807097000,2.68509716796875,-0.21460862457752228,-0.25626108050346375,0.13830794394016266
1788867444817057000,2.69505712890625,-0.21360741555690765,-0.19788888096809387,0.1551307737827301
1788867444827017000,2.705016845703125,-0.21417146921157837,-0.12183564156293869,0.15983258187770844
1788867444836977000,2.714976806640625,-0.20647580921649933,-0.03782029449939728,0.15291498601436615
1788867444846938400,2.7249384765625,-0.18939776718616486,0.029659681022167206,0.1350877732038498
1788867444856898300,2.734898193359375,-0.16482587158679962,0.0922975093126297,0.11251544952392578
1788867444866858500,2.7448583984375,-0.1384374052286148,0.1531052142381668,0.09457160532474518
1788867444876818400,2.754818359375,-0.11686747521162033,0.1976327896118164,0.07670068740844727
1788867444886779400,2.764779296875,-0.09815903753042221,0.21602778136730194,0.06200669705867767
1788867444896739600,2.774739501953125,-0.08051356673240662,0.20635543763637543,0.04479074105620384
1788867444906699500,2.784699462890625,-0.059306550770998,0.17315807938575745,0.027535589411854744
1788867444916659500,2.794659423828125,-0.05409377068281174,0.12691259384155273,0.00536026805639267
1788867444926619400,2.804619384765625,-0.07460756599903107,0.06121454015374184,-0.0280458927154541
1788867444936579600,2.81457958984375,-0.1039843037724495,-0.0027386355213820934,-0.06907154619693756
1788867444946539500,2.82453955078125,-0.12291404604911804,-0.058549970388412476,-0.11233992874622345
1788867444956499500,2.83449951171875,-0.13453324139118195,-0.08794894814491272,-0.1478273570537567
1788867444966460400,2.84446044921875,-0.13477452099323273,-0.10063891112804413,-0.1778172105550766
1788867444976420400,2.85442041015625,-0.12362506240606308,-0.10032173246145248,-0.1954062134027481
1788867444986380300,2.86438037109375,-0.09413667768239975,-0.07594182342290878,-0.19257767498493195
1788867444996340200,2.87434033203125,-0.058483291417360306,-0.02600746974349022,-0.17276203632354736
1788867445006300400,2.884300537109375,-0.014357908628880978,0.03897872194647789,-0.13446711003780365
1788867445016260400,2.89426025390625,0.02777988463640213,0.11449369788169861,-0.08547831326723099
1788867445026220300,2.90422021484375,0.05555851757526398,0.1818961650133133,-0.03746471554040909
1788867445036180500,2.914180419921875,0.0714181438088417,0.21262481808662415,0.0022271331399679184
1788867445046140400,2.924140380859375,0.08534248173236847,0.19348174333572388,0.01908387802541256
1788867445056100400,2.934100341796875,0.10034958273172379,0.1427498310804367,0.027778254821896553
1788867445066061600,2.9440615234375,0.11003071069717407,0.07796337455511093,0.025973698124289513
1788867445076021500,2.954021484375,0.12246239185333252,0.02551122196018696,0.024556506425142288
1788867445085981400,2.9639814453125,0.1317477524280548,-0.006248040124773979,0.03123917430639267
1788867445095941400,2.97394140625,0.13518187403678894,-0.03177868202328682,0.042157165706157684
1788867445105901600,2.983901611328125,0.13506442308425903,-0.05121522769331932,0.047566309571266174
1788867445115861500,2.993861572265625,0.12959466874599457,-0.07481550425291061,0.0417824350297451
1788867445125821400,3.003821533203125,0.10779109597206116,-0.0933670848608017,0.01752370223402977
1788867445135781400,3.013781494140625,0.08159293234348297,-0.11915187537670135,-0.017329268157482147
1788867445145741600,3.023741455078125,0.0569099560379982,-0.12909451127052307,-0.046073298901319504
1788867445155702300,3.033702392578125,0.04126669839024544,-0.10659192502498627,-0.06114351004362106
1788867445165662200,3.043662109375,0.03245056793093681,-0.050385646522045135,-0.06474702805280685
1788867445175622400,3.053622314453125,0.053702060133218765,0.035117898136377335,-0.04584231600165367
1788867445185582300,3.063582275390625,0.0847550556063652,0.1392802596092224,-0.01474990975111723
1788867445195542300,3.073542236328125,0.12489508837461472,0.23588953912258148,0.028204789385199547
1788867445205502500,3.08350244140625,0.1740810126066208,0.31314173340797424,0.07149207592010498
1788867445215462400,3.09346240234375,0.21990032494068146,0.3629418611526489,0.10637661069631577
1788867445225422300,3.10342236328125,0.2598317563533783,0.3975600302219391,0.12909497320652008
1788867445235382300,3.11338232421875,0.2977064847946167,0.4169851541519165,0.13669924437999725
1788867445245343500,3.123343505859375,0.32006025314331055,0.4189572334289551,0.13092976808547974
1788867445255303400,3.133303466796875,0.3252856731414795,0.40834876894950867,0.11911296099424362
1788867445265263400,3.143263427734375,0.3212379217147827,0.372125506401062,0.09142141044139862
1788867445275223600,3.1532236328125,0.31339138746261597,0.3121916353702545,0.04594465717673302
1788867445285183500,3.16318359375,0.2968025505542755,0.24057018756866455,-0.004117709584534168
1788867445295143400,3.173143310546875,0.27409806847572327,0.14269593358039856,-0.0743890106678009
1788867445305103400,3.183103271484375,0.25731509923934937,0.07386492937803268,-0.1250860095024109
1788867445315063600,3.1930634765625,0.2441243976354599,0.042785655707120895,-0.14216063916683197
1788867445325023500,3.2030234375,0.23156999051570892,0.04785871133208275,-0.12787383794784546
1788867445334984200,3.212984130859375,0.22890125215053558,0.06251134723424911,-0.10161007940769196
1788867445344944400,3.2229443359375,0.2348126769065857,0.06477583944797516,-0.0852912962436676
1788867445354904300,3.232904296875,0.25037574768066406,0.026684504002332687,-0.08548305928707123
1788867445364864300,3.2428642578125,0.250457763671875,-0.0596005842089653,-0.10045215487480164
1788867445374824200,3.25282421875,0.20425307750701904,-0.20581205189228058,-0.12917274236679077
1788867445384784400,3.262784423828125,0.11945457011461258,-0.34093284606933594,-0.14587876200675964
1788867445394744300,3.272744384765625,0.051844485104084015,-0.3408535420894623,-0.10543873906135559
1788867445404704300,3.282704345703125,0.052336372435092926,-0.18113523721694946,0.013058348558843136
1788867445414664400,3.29266455078125,0.1289728730916977,0.0919000655412674,0.1960088610649109
1788867445424625400,3.30262548828125,0.25541815161705017,0.42057010531425476,0.39446336030960083
1788867445434585300,3.31258544921875,0.38043174147605896,0.6876424551010132,0.5492542386054993
1788867445444545500,3.322545654296875,0.4817567765712738,0.8393824100494385,0.6339691281318665
1788867445454505500,3.33250537109375,0.5611209273338318,0.9452085494995117,0.6740286946296692
1788867445464465400,3.34246533203125,0.5877229571342468,0.9459095001220703,0.6416028738021851
1788867445474425300,3.35242529296875,0.5824680328369141,0.8242534399032593,0.537507951259613
1788867445484385500,3.362385498046875,0.5363072156906128,0.5847111344337463,0.3714103400707245
1788867445494345500,3.372345458984375,0.44466668367385864,0.28547999262809753,0.18436303734779358
1788867445504305400,3.382305419921875,0.3093637228012085,-0.03531081974506378,0.014734592288732529
1788867445514266400,3.392266357421875,0.16097338497638702,-0.35731226205825806,-0.1223120167851448
1788867445524226300,3.402226318359375,0.048614878207445145,-0.5563228130340576,-0.20003078877925873
1788867445534186200,3.412186279296875,-0.0338134728372097,-0.5989817976951599,-0.2320285141468048
1788867445544146200,3.422146240234375,-0.08978991955518723,-0.5562995672225952,-0.23181253671646118
1788867445554106400,3.4321064453125,-0.1084892526268959,-0.4439837634563446,-0.2039427012205124
1788867445564066300,3.44206640625,-0.10202309489250183,-0.27349990606307983,-0.16455988585948944
1788867445574026200,3.452026123046875,-0.06636951863765717,-0.09765184670686722,-0.11162948608398438
1788867445583986200,3.461986083984375,0.0074525075033307076,0.07023090124130249,-0.0535518079996109
1788867445593946400,3.4719462890625,0.10431398451328278,0.21856224536895752,0.00287630595266819
1788867445603907300,3.4819072265625,0.19479940831661224,0.33578580617904663,0.05250218138098717
1788867445613867300,3.4918671875,0.2507328391075134,0.41487348079681396,0.08437960594892502
1788867445623827500,3.501827392578125,0.27926966547966003,0.44534218311309814,0.09852284938097
1788867445633787400,3.511787353515625,0.2967516779899597,0.4327932596206665,0.10106739401817322
1788867445643747300,3.521747314453125,0.28122010827064514,0.36208420991897583,0.08637873083353043
1788867445653707500,3.53170751953125,0.24127763509750366,0.26564064621925354,0.058140285313129425
1788867445663667500,3.54166748046875,0.17617399990558624,0.13697455823421478,0.008212674409151077
1788867445673627400,3.55162744140625,0.09422045946121216,-0.034263040870428085,-0.061691053211688995
1788867445683587300,3.56158740234375,0.026907464489340782,-0.18490874767303467,-0.12612490355968475
1788867445693548500,3.571548583984375,-0.014516227878630161,-0.26037320494651794,-0.1601337492465973
1788867445703508500,3.581508544921875,-0.05568523705005646,-0.2704641819000244,-0.16818474233150482
1788867445713468400,3.591468505859375,-0.09225450456142426,-0.22506876289844513,-0.16098468005657196
1788867445723428600,3.6014287109375,-0.09425773471593857,-0.14839769899845123,-0.13886100053787231
1788867445733388500,3.611388427734375,-0.05871155485510826,-0.048563361167907715,-0.0995657667517662
1788867445743348500,3.621348388671875,-0.015615484677255154,0.04294444993138313,-0.04559600353240967
1788867445753308400,3.631308349609375,0.018811549991369247,0.10214526206254959,0.010508552193641663
1788867445763268400,3.641268310546875,0.036852069199085236,0.10863564908504486,0.0669606477022171
1788867445773228300,3.651228271484375,0.04649927467107773,0.07157950103282928,0.10624601691961288
1788867445783189200,3.661189208984375,0.04498846083879471,0.0070697539485991,0.12734144926071167
1788867445793149400,3.6711494140625,0.028032448142766953,-0.0754145011305809,0.13119405508041382
1788867445803109400,3.681109375,0.004737245384603739,-0.17506760358810425,0.12077337503433228
1788867445813069300,3.6910693359375,-0.015453468076884747,-0.27068233489990234,0.11317311227321625
1788867445823029200,3.701029296875,-0.036952901631593704,-0.3360602557659149,0.12508222460746765
1788867445832989400,3.710989501953125,-0.06514222919940948,-0.3656012713909149,0.15279918909072876
1788867445842949400,3.720949462890625,-0.08852797746658325,-0.36790382862091064,0.17882493138313293
1788867445852908300,3.730908203125,-0.10895488411188126,-0.3529618978500366,0.1920108050107956
1788867445862868200,3.7408681640625,-0.12062005698680878,-0.302836149930954,0.19942665100097656
1788867445872829400,3.750829345703125,-0.13373848795890808,-0.21217451989650726,0.20219731330871582
1788867445882789400,3.760789306640625,-0.15734314918518066,-0.10608403384685516,0.19257397949695587
1788867445892749300,3.770749267578125,-0.1859157383441925,-0.016726868227124214,0.16662432253360748
1788867445902709200,3.780709228515625,-0.21467414498329163,0.04293406382203102,0.1392662078142166
1788867445912669400,3.79066943359375,-0.2402900606393814,0.07046296447515488,0.11003168672323227
1788867445922629400,3.80062939453125,-0.2753199338912964,0.041457146406173706,0.06439176201820374
1788867445932589300,3.81058935546875,-0.31860268115997314,-0.058842454105615616,-0.0022192916367202997
1788867445942549500,3.820549560546875,-0.36725544929504395,-0.20801302790641785,-0.0752040222287178
1788867445952509400,3.830509521484375,-0.41725102066993713,-0.31640347838401794,-0.12278039753437042
1788867445962470400,3.840470458984375,-0.45990633964538574,-0.3418012261390686,-0.1317959874868393
1788867445972430600,3.8504306640625,-0.48294597864151,-0.26095640659332275,-0.11411152780056
1788867445982390500,3.860390625,-0.4827638268470764,-0.14766180515289307,-0.08057593554258347
1788867445992350500,3.8703505859375,-0.43193259835243225,-0.06717894971370697,-0.04901773855090141
1788867446002310400,3.880310302734375,-0.37660276889801025,-0.01896055042743683,-0.03342466801404953
1788867446012270300,3.890270263671875,-0.3479449450969696,-0.008344694972038269,-0.03448612242937088
1788867446022230300,3.900230224609375,-0.32091546058654785,0.027355244383215904,-0.03911283612251282
1788867446032190200,3.910190185546875,-0.2816425561904907,0.11404593288898468,-0.030459590256214142
1788867446042150100,3.920150146484375,-0.2302510291337967,0.23367884755134583,0.000025348737835884094
1788867446052111400,3.930111328125,-0.18401813507080078,0.35589587688446045,0.04873917996883392
1788867446062071300,3.9400712890625,-0.13321566581726074,0.44788092374801636,0.11129656434059143
1788867446072031200,3.95003125,-0.07303469628095627,0.4890536367893219,0.1793629229068756
1788867446081991400,3.959991455078125,-0.001722167362459004,0.4714197814464569,0.24504046142101288
1788867446091951400,3.969951416015625,0.06511291116476059,0.41646477580070496,0.3053188621997833
1788867446101911300,3.979911376953125,0.10396577417850494,0.31915581226348877,0.34395307302474976
1788867446111871200,3.989871337890625,0.10877760499715805,0.17257937788963318,0.34801486134529114
1788867446121831400,3.99983154296875,0.10298629105091095,-0.001893611392006278,0.3245934247970581
1788867446131791400,4.009791259765625,0.10075367242097855,-0.1744987964630127,0.2817288041114807
1788867446141752300,4.01975244140625,0.09427313506603241,-0.29558420181274414,0.23928013443946838
1788867446151712500,4.02971240234375,0.08197122067213058,-0.339258074760437,0.20968088507652283
1788867446161672400,4.03967236328125,0.05543707683682442,-0.31659775972366333,0.18796519935131073
1788867446171632400,4.04963232421875,0.019335053861141205,-0.26644423604011536,0.15895976126194
1788867446181592600,4.059592529296875,-0.0208405964076519,-0.22247491776943207,0.11489111185073853
1788867446191552500,4.069552490234375,-0.07301104813814163,-0.18423137068748474,0.05606139078736305
1788867446201512400,4.079512451171875,-0.12817923724651337,-0.17360003292560577,-0.024392172694206238
1788867446211472400,4.089472412109375,-0.185539111495018,-0.19424958527088165,-0.125970721244812
1788867446221432300,4.099432373046875,-0.23980288207530975,-0.23545241355895996,-0.2279370278120041
1788867446231393300,4.109393310546875,-0.2839297950267792,-0.26731380820274353,-0.3059089779853821
1788867446241353200,4.119353271484375,-0.3184558153152466,-0.26875779032707214,-0.34838852286338806
1788867446251313400,4.1293134765625,-0.3230721652507782,-0.24603836238384247,-0.3433355987071991
1788867446261273300,4.1392734375,-0.2752210199832916,-0.16224972903728485,-0.2770974636077881
1788867446271233300,4.1492333984375,-0.1724976748228073,-0.018643105402588844,-0.15788264572620392
1788867446281193200,4.159193115234375,-0.03708178550004959,0.1666218340396881,-0.004964211490005255
1788867446291153400,4.1691533203125,0.11726967990398407,0.353158563375473,0.15369632840156555
1788867446301113300,4.17911328125,0.2295573353767395,0.4687400162220001,0.2632302939891815
1788867446311073300,4.1890732421875,0.30873769521713257,0.4759438633918762,0.32231658697128296
1788867446321034500,4.199034423828125,0.35377922654151917,0.4344877600669861,0.34472495317459106
1788867446330994400,4.208994384765625,0.36141639947891235,0.3823246657848358,0.3393920660018921
1788867446340954400,4.218954345703125,0.33329182863235474,0.3309147357940674,0.30611321330070496
1788867446350914300,4.228914306640625,0.27454710006713867,0.26628628373146057,0.24765978753566742
1788867446360874500,4.23887451171875,0.19973066449165344,0.18641649186611176,0.16836468875408173
1788867446370834400,4.24883447265625,0.12527093291282654,0.10050138086080551,0.07450015842914581
1788867446380794400,4.25879443359375,0.06189728528261185,0.027947017922997475,-0.019952844828367233
1788867446390754600,4.268754638671875,0.016741912811994553,-0.03090212680399418,-0.1064784973859787
1788867446400714500,4.278714599609375,-0.005541822873055935,-0.06280466914176941,-0.1704806387424469
1788867446410675200,4.28867529296875,-0.015448365360498428,-0.05820198357105255,-0.20095831155776978
1788867446420635400,4.298635498046875,-0.008317485451698303,-0.026464559137821198,-0.2020328938961029
1788867446430595300,4.30859521484375,0.002189198276028037,0.03667319938540459,-0.18227244913578033
1788867446440555300,4.31855517578125,0.029725750908255577,0.11450700461864471,-0.15222559869289398
1788867446450515200,4.32851513671875,0.07398999482393265,0.18285895884037018,-0.11938464641571045
1788867446460475400,4.338475341796875,0.12606225907802582,0.20426838099956512,-0.09000758081674576
1788867446470435300,4.348435302734375,0.18429483473300934,0.18773482739925385,-0.05643415451049805
1788867446480395300,4.358395263671875,0.24679124355316162,0.15007026493549347,-0.012729818001389503
1788867446490355200,4.368355224609375,0.291847288608551,0.08945900946855545,0.026974836364388466
1788867446500316400,4.37831640625,0.3198552131652832,0.029655063524842262,0.056271202862262726
1788867446510276400,4.3882763671875,0.32827648520469666,-0.006556082516908646,0.06436266005039215
1788867446520236300,4.398236328125,0.31480515003204346,-0.031180735677480698,0.04735784977674484
1788867446530196500,4.408196533203125,0.2845144271850586,-0.05938141047954559,-0.0036816224455833435
1788867446540156400,4.418156494140625,0.24266712367534637,-0.11570487171411514,-0.07799606025218964
1788867446550116400,4.428116455078125,0.18662980198860168,-0.17516712844371796,-0.14469631016254425
1788867446560076300,4.438076171875,0.12650839984416962,-0.21342423558235168,-0.18237125873565674
1788867446570036500,4.448036376953125,0.055556558072566986,-0.23745141923427582,-0.20880074799060822
1788867446579996400,4.457996337890625,0.003765531349927187,-0.23469451069831848,-0.20099316537380219
1788867446589957000,4.46795703125,-0.00833495520055294,-0.15684103965759277,-0.15267552435398102
1788867446599917300,4.477917236328125,0.014604715630412102,-0.03495294228196144,-0.06948050111532211
1788867446609877200,4.487877197265625,0.06222699582576752,0.11415982991456985,0.0336773619055748
1788867446619837200,4.497837158203125,0.12074116617441177,0.257000595331192,0.12338674813508987
1788867446629797400,4.50779736328125,0.17813800275325775,0.35416996479034424,0.18119879066944122
1788867446639757300,4.51775732421875,0.2223464846611023,0.4028964936733246,0.2016095221042633
1788867446649717200,4.52771728515625,0.24727551639080048,0.4207906126976013,0.19608859717845917
1788867446659677200,4.53767724609375,0.25159570574760437,0.42608603835105896,0.1731712967157364
1788867446669637400,4.547637451171875,0.23807324469089508,0.42828479409217834,0.12432089447975159
1788867446679598300,4.557598388671875,0.20810282230377197,0.36016327142715454,0.0396568700671196
1788867446689558300,4.567558349609375,0.15493892133235931,0.2185707539319992,-0.06684290617704391
1788867446699518500,4.5775185546875,0.09325851500034332,0.07786104828119278,-0.1435781717300415
1788867446709478400,4.587478515625,0.032367754727602005,-0.007028435356914997,-0.1723369061946869
1788867446719438300,4.597438232421875,-0.015155556611716747,-0.043085239827632904,-0.1685618758201599
1788867446729398300,4.607398193359375,-0.04400530457496643,-0.07084517925977707,-0.17055341601371765
1788867446739358500,4.6173583984375,-0.046686574816703796,-0.13618291914463043,-0.18529188632965088
1788867446749318400,4.627318359375,-0.032890792936086655,-0.22642143070697784,-0.19545845687389374
1788867446759278300,4.6372783203125,-0.028563689440488815,-0.2805051803588867,-0.18297410011291504
1788867446769239600,4.647239501953125,-0.014546374790370464,-0.2859633266925812,-0.1475863754749298
1788867446779199500,4.657199462890625,0.021877411752939224,-0.1985277682542801,-0.07235392928123474
1788867446789159400,4.667159423828125,0.0959354043006897,-0.011534929275512695,0.06145363301038742
1788867446799119400,4.677119384765625,0.19963756203651428,0.24326567351818085,0.2549554407596588
1788867446809079300,4.687079345703125,0.3087110221385956,0.5483664274215698,0.45933428406715393
1788867446819039200,4.697039306640625,0.4322526454925537,0.8052970170974731,0.6208834648132324
1788867446828999200,4.706999267578125,0.5808390378952026,0.9924590587615967,0.7276231050491333
1788867446838959400,4.71695947265625,0.6988056302070618,1.1023027896881104,0.7852197885513306
1788867446848919000,4.7269189453125,0.7656611800193787,1.140409231185913,0.7857140302658081
1788867446858880300,4.73688037109375,0.7883493900299072,1.045524001121521,0.727003276348114
1788867446868840200,4.746840087890625,0.7499765157699585,0.8193648457527161,0.6182032823562622
1788867446878800100,4.756800048828125,0.6340938210487366,0.4458048939704895,0.4441949427127838
1788867446888760300,4.76676025390625,0.4768402576446533,0.03035302460193634,0.2485024780035019
1788867446898720300,4.77672021484375,0.30619901418685913,-0.394374817609787,0.05779057368636131
1788867446908680200,4.78668017578125,0.17586930096149445,-0.7617504000663757,-0.1060219258069992
1788867446918640000,4.79664013671875,0.08604487031698227,-0.962498128414154,-0.21040745079517365
1788867446928600300,4.806600341796875,-0.023167666047811508,-1.040884017944336,-0.2740981876850128
1788867446938560300,4.816560302734375,-0.09672977030277252,-1.0397343635559082,-0.3021679222583771
1788867446948521200,4.826521240234375,-0.1426067352294922,-0.9769988656044006,-0.3089245557785034
1788867446958481400,4.8364814453125,-0.16492775082588196,-0.8688798546791077,-0.29816219210624695
1788867446968441300,4.84644140625,-0.1589336097240448,-0.7186641097068787,-0.27428293228149414
1788867446978401300,4.8564013671875,-0.12057209759950638,-0.5488598942756653,-0.23970229923725128
1788867446988361200,4.866361328125,-0.054279543459415436,-0.35248512029647827,-0.18726839125156403
1788867446998321400,4.8763212890625,0.02397345006465912,-0.13821622729301453,-0.10864388197660446
1788867447008281300,4.88628125,0.10189978033304214,0.05951790511608124,-0.01791376620531082
1788867447018241300,4.8962412109375,0.15671402215957642,0.21927215158939362,0.07812914252281189
1788867447028201200,4.906201171875,0.1790662258863449,0.3103451728820801,0.16896763443946838
1788867447038162200,4.916162109375,0.1842239648103714,0.32797449827194214,0.23971718549728394
1788867447048122000,4.9261220703125,0.18484756350517273,0.30430835485458374,0.2951589524745941
1788867447058082300,4.936082275390625,0.1549551784992218,0.2481183260679245,0.3294471502304077
1788867447068042200,4.946042236328125,0.10926181077957153,0.1959260255098343,0.3511016070842743
1788867447078002200,4.956002197265625,0.06747494637966156,0.16115181148052216,0.35905274748802185
1788867447087962000,4.965962158203125,0.02548304572701454,0.13759517669677734,0.3499036431312561
1788867447097922300,4.97592236328125,-0.016719801351428032,0.13031037151813507,0.32063549757003784
1788867447107882200,4.98588232421875,-0.06525153666734695,0.13554434478282928,0.2798224687576294
1788867447117842200,4.99584228515625,-0.11674481630325317,0.15248630940914154,0.23611332476139069
1788867447127803400,5.005803466796875,-0.1697738617658615,0.17811264097690582,0.1902899295091629
1788867447137763300,5.015763427734375,-0.2235548049211502,0.19511531293392181,0.14529582858085632
1788867447147723300,5.02572314453125,-0.27879858016967773,0.1840617060661316,0.09943816065788269
1788867447157683200,5.03568310546875,-0.332612007856369,0.1341833621263504,0.0557926781475544
1788867447167643400,5.045643310546875,-0.39382609724998474,0.05150345712900162,0.022652363404631615
1788867447177603300,5.055603271484375,-0.4460027515888214,-0.04645213484764099,0.006007074378430843
1788867447187563300,5.065563232421875,-0.4850982427597046,-0.11980509012937546,0.011933144181966782
1788867447197523200,5.075523193359375,-0.5137477517127991,-0.15511460602283478,0.03153933584690094
1788867447207483400,5.0854833984375,-0.5356091856956482,-0.16360971331596375,0.05178530141711235
1788867447217444000,5.095444091796875,-0.5488573312759399,-0.1635412722826004,0.05671774223446846
1788867447227404000,5.105404052734375,-0.5577703714370728,-0.1600756198167801,0.0448245033621788
1788867447237364200,5.1153642578125,-0.5705109238624573,-0.15500202775001526,0.02441962994635105
1788867447247324200,5.12532421875,-0.5921081304550171,-0.15256308019161224,-0.0008344990201294422
1788867447257284000,5.1352841796875,-0.6164515614509583,-0.13975034654140472,-0.01856635883450508
1788867447267244300,5.145244384765625,-0.6383856534957886,-0.1020917072892189,-0.027046630159020424
1788867447277204200,5.155204345703125,-0.6399713158607483,-0.04565346613526344,-0.017527425661683083
1788867447287164200,5.1651640625,-0.6211146712303162,0.02182263694703579,0.008429850451648235
1788867447297124000,5.1751240234375,-0.6036049127578735,0.07696232199668884,0.04711678996682167
1788867447307085300,5.185085205078125,-0.5968412160873413,0.10382388532161713,0.0894535705447197
1788867447317045200,5.195045166015625,-0.6021808385848999,0.08812055736780167,0.11783061921596527
1788867447327005200,5.205005126953125,-0.6263173222541809,0.03961707651615143,0.1337966024875641
1788867447336965400,5.21496533203125,-0.6575588583946228,-0.018053144216537476,0.13819189369678497
1788867447346925300,5.22492529296875,-0.6990739703178406,-0.07317757606506348,0.13285918533802032
1788867447356885200,5.23488525390625,-0.732901930809021,-0.10240070521831512,0.1253133863210678
1788867447366845200,5.24484521484375,-0.7584574818611145,-0.09570968896150589,0.12220767140388489
1788867447376805400,5.254805419921875,-0.7835127711296082,-0.07071938365697861,0.11312974989414215
1788867447386765300,5.264765380859375,-0.8078866004943848,-0.04225949943065643,0.09866595268249512
1788867447396726000,5.27472607421875,-0.8393257260322571,-0.004635958932340145,0.0862116813659668
1788867447406686200,5.284686279296875,-0.8828297257423401,0.007173581980168819,0.06154659017920494
1788867447416646100,5.294646240234375,-0.9226152300834656,-0.004575219936668873,0.04240724816918373
1788867447426606000,5.304606201171875,-0.9743263721466064,-0.03511262312531471,0.018339194357395172
1788867447436566000,5.31456591796875,-1.0352579355239868,-0.10881747305393219,-0.0037903415504842997
1788867447446526200,5.324526123046875,-1.1027953624725342,-0.17526781558990479,-0.012945789843797684
1788867447456486100,5.334486083984375,-1.1795815229415894,-0.23678231239318848,-0.013674164190888405
1788867447466446000,5.344446044921875,-1.2598358392715454,-0.2735782265663147,-0.0009202435612678528
1788867447476406300,5.35440625,-1.3325600624084473,-0.26693469285964966,0.022469768300652504
1788867447486367200,5.3643671875,-1.3960427045822144,-0.24065272510051727,0.04516921192407608
1788867447496327200,5.3743271484375,-1.450393557548523,-0.20434878766536713,0.07259950041770935
1788867447506287400,5.384287353515625,-1.501047968864441,-0.14774209260940552,0.10898688435554504
1788867447516247300,5.394247314453125,-1.5433628559112549,-0.09721819311380386,0.14786291122436523
1788867447526207200,5.404207275390625,-1.5666197538375854,-0.020344173535704613,0.20485332608222961
1788867447536167200,5.414167236328125,-1.582798957824707,0.053352683782577515,0.2592664957046509
1788867447546127400,5.42412744140625,-1.5726215839385986,0.08321108669042587,0.2825154960155487
1788867447556087300,5.43408740234375,-1.6237982511520386,0.030096204951405525,0.23630806803703308
1788867447566047200,5.444047119140625,-1.7235357761383057,-0.22616130113601685,0.11272337287664413
1788867447576008200,5.45400830078125,-1.898932933807373,-0.6646579504013062,-0.06491532921791077
1788867447585968000,5.463968017578125,-2.1470727920532227,-1.241370439529419,-0.321246474981308
1788867447595928300,5.47392822265625,-2.387449264526367,-1.6329928636550903,-0.551624059677124
1788867447605888300,5.48388818359375,-2.5858757495880127,-1.7442067861557007,-0.6733366250991821
1788867447615848200,5.49384814453125,-2.7182724475860596,-1.5724902153015137,-0.6484203338623047
1788867447625808100,5.50380810546875,-2.7404139041900635,-1.1552621126174927,-0.4736805856227875
1788867447635768000,5.51376806640625,-2.648469924926758,-0.6090146899223328,-0.2160290777683258
1788867447645728000,5.52372802734375,-2.4741454124450684,-0.10689762979745865,0.026025736704468727
1788867447655688200,5.533688232421875,-2.2739226818084717,0.17704567313194275,0.1783849149942398
1788867447665649200,5.543649169921875,-2.0962717533111572,0.2621992230415344,0.2326987236738205
1788867447675609000,5.553609130859375,-1.9549880027770996,0.2126183658838272,0.20381301641464233
1788867447685569300,5.5635693359375,-1.8890016078948975,0.04405566304922104,0.10840849578380585
1788867447695529200,5.573529296875,-1.9068440198898315,-0.26183393597602844,-0.04932307451963425
1788867447705489200,5.5834892578125,-1.9705138206481934,-0.5937938690185547,-0.20377880334854126
1788867447715449300,5.593449462890625,-2.022554874420166,-0.8817444443702698,-0.28743454813957214
1788867447725409300,5.6034091796875,-2.06980562210083,-1.0637043714523315,-0.28698524832725525
1788867447735369200,5.613369140625,-2.125638484954834,-1.164372444152832,-0.2353241741657257
1788867447745330400,5.623330322265625,-2.1620941162109375,-1.1995060443878174,-0.15155735611915588
1788867447755290400,5.633290283203125,-2.180384397506714,-1.1617605686187744,-0.06286928802728653
1788867447765250300,5.643250244140625,-2.1818838119506836,-1.0754368305206299,0.00876828283071518
1788867447775210200,5.653210205078125,-2.1663763523101807,-0.9252833127975464,0.06069885566830635
1788867447785170400,5.66317041015625,-2.137078285217285,-0.736458420753479,0.08376330882310867
1788867447795130400,5.67313037109375,-2.0976505279541016,-0.5521814823150635,0.06584849208593369
1788867447805090300,5.68309033203125,-2.0549285411834717,-0.3879832625389099,0.025251664221286774
1788867447815050200,5.69305029296875,-2.0207273960113525,-0.26684537529945374,-0.013265635818243027
1788867447825010200,5.70301025390625,-1.9826678037643433,-0.19509445130825043,-0.028552435338497162
1788867447834971100,5.71297119140625,-1.9456045627593994,-0.14643023908138275,-0.000511479564011097
1788867447844931600,5.722931640625,-1.9170706272125244,-0.12238957732915878,0.05543980747461319
1788867447854891500,5.7328916015625,-1.897099256515503,-0.12765170633792877,0.12042147666215897
1788867447864851500,5.7428515625,-1.8736664056777954,-0.13775599002838135,0.18059861660003662
1788867447874811400,5.752811279296875,-1.8566240072250366,-0.1574774980545044,0.22317378222942352
1788867447884771600,5.762771484375,-1.8521668910980225,-0.1833900511264801,0.24522478878498077
1788867447894731500,5.7727314453125,-1.8473255634307861,-0.20944269001483917,0.24121540784835815
1788867447904691500,5.78269140625,-1.8396023511886597,-0.24604609608650208,0.20823195576667786
1788867447914651600,5.792651611328125,-1.827614665031433,-0.3008989691734314,0.14908581972122192
1788867447924611600,5.802611572265625,-1.8141145706176758,-0.3745575547218323,0.06641612946987152
1788867447934572500,5.812572509765625,-1.7944897413253784,-0.42682182788848877,-0.022488173097372055
1788867447944532700,5.82253271484375,-1.7684438228607178,-0.43479254841804504,-0.09574146568775177
1788867447954492700,5.83249267578125,-1.7354265451431274,-0.39156678318977356,-0.14400885999202728
1788867447964452600,5.84245263671875,-1.7060256004333496,-0.31900206208229065,-0.16586236655712128
1788867447974412500,5.85241259765625,-1.6795777082443237,-0.2376992404460907,-0.16460029780864716
1788867447984372700,5.862372802734375,-1.6522678136825562,-0.14732742309570312,-0.14879059791564941
1788867447994332700,5.872332763671875,-1.6279302835464478,-0.06098267808556557,-0.12815776467323303
1788867448004292600,5.882292724609375,-1.6087360382080078,0.007582660764455795,-0.11305020749568939
1788867448014252500,5.89225244140625,-1.5814306735992432,0.04996393993496895,-0.10838168859481812
1788867448024213500,5.902213623046875,-1.533756136894226,0.06743814051151276,-0.10946077853441238
1788867448034173400,5.91217333984375,-1.4753804206848145,0.06638193130493164,-0.10940058529376984
1788867448044133400,5.92213330078125,-1.4151355028152466,0.06428904831409454,-0.10879456996917725
1788867448054093600,5.932093505859375,-1.3587875366210938,0.06034011021256447,-0.11058580875396729
1788867448064053500,5.942053466796875,-1.3200477361679077,0.05069165304303169,-0.1164807677268982
1788867448074013400,5.952013427734375,-1.294534683227539,0.03773856908082962,-0.13406668603420258
1788867448083973400,5.961973388671875,-1.2668049335479736,0.025107627734541893,-0.16553111374378204
1788867448093933600,5.97193359375,-1.2634117603302002,0.008943038061261177,-0.20470301806926727
1788867448103893500,5.9818935546875,-1.2614506483078003,-0.011854561977088451,-0.2432604432106018
1788867448113854500,5.9918544921875,-1.2378544807434082,-0.025577297434210777,-0.2801675796508789
1788867448123814700,6.001814697265625,-1.1991584300994873,-0.047320205718278885,-0.29228001832962036
1788867448133774600,6.011774658203125,-1.1539220809936523,-0.05248301103711128,-0.2885100543498993
1788867448143734500,6.021734619140625,-1.0912429094314575,-0.05379393324255943,-0.25865551829338074
1788867448153694700,6.03169482421875,-1.0264564752578735,-0.010838743299245834,-0.2094230055809021
1788867448163654700,6.041654541015625,-0.9582467675209045,0.009200566448271275,-0.16281890869140625
1788867448173614600,6.051614501953125,-0.8943889141082764,-0.009262596257030964,-0.1345694363117218
1788867448183574500,6.061574462890625,-0.8338876962661743,-0.07682164758443832,-0.13387109339237213
1788867448193535500,6.071535400390625,-0.7732765078544617,-0.13994629681110382,-0.15199178457260132
1788867448203495400,6.081495361328125,-0.7340663075447083,-0.1996527463197708,-0.18821892142295837
1788867448213455400,6.091455322265625,-0.7051377296447754,-0.21360903978347778,-0.2117234617471695
1788867448223415600,6.10141552734375,-0.6850659847259521,-0.16898590326309204,-0.22570770978927612
1788867448233375500,6.11137548828125,-0.6570349335670471,-0.11748623847961426,-0.22550371289253235
1788867448243335400,6.12133544921875,-0.6095291376113892,-0.03298148885369301,-0.19365347921848297
1788867448253295400,6.13129541015625,-0.5473483204841614,0.045024361461400986,-0.14082035422325134
1788867448263255600,6.141255615234375,-0.47801974415779114,0.10044753551483154,-0.08230593800544739
1788867448273215500,6.151215576171875,-0.4141581952571869,0.12015199661254883,-0.02826320379972458
1788867448283176400,6.161176513671875,-0.36213335394859314,0.10403840988874435,0.0018651089631021023
1788867448293136600,6.17113671875,-0.3245795667171478,0.05104230344295502,0.0074516222812235355
1788867448303096600,6.1810966796875,-0.2914464771747589,0.0035796985030174255,0.004377756733447313
1788867448313056500,6.191056396484375,-0.26550835371017456,-0.02659524790942669,0.00676581310108304
1788867448323016400,6.201016357421875,-0.2432878613471985,-0.024500777944922447,0.02418779581785202
1788867448332976600,6.2109765625,-0.21875429153442383,-0.006408326793462038,0.0515536405146122
1788867448342936600,6.2209365234375,-0.196824312210083,0.03414421156048775,0.08339893817901611
1788867448352896500,6.230896484375,-0.18308798968791962,0.1023847758769989,0.10401313751935959
1788867448362856700,6.240856689453125,-0.18610064685344696,0.1890251636505127,0.10951442271471024
1788867448372817400,6.2508173828125,-0.19561931490898132,0.2676147520542145,0.09502895176410675
1788867448382777300,6.26077734375,-0.19384437799453735,0.32063356041908264,0.07857081294059753
1788867448392737500,6.270737548828125,-0.17626512050628662,0.3181440234184265,0.06852776557207108
1788867448402697500,6.280697509765625,-0.1470900923013687,0.2332170605659485,0.0667593702673912
1788867448412657400,6.290657470703125,-0.118743397295475,0.10677070915699005,0.06350792199373245
1788867448422617300,6.300617431640625,-0.09682326018810272,-0.0006930939853191376,0.06139013171195984
1788867448432577500,6.31057763671875,-0.09913142770528793,-0.09889769554138184,0.03317740187048912
1788867448442537500,6.320537353515625,-0.10602348297834396,-0.16911686956882477,-0.03531863912940025
1788867448452497400,6.330497314453125,-0.11392880976200104,-0.20268654823303223,-0.14178435504436493
1788867448462458600,6.340458740234375,-0.1435963362455368,-0.23174992203712463,-0.2697620391845703
1788867448472418600,6.35041845703125,-0.19186879694461823,-0.26245322823524475,-0.38317355513572693
1788867448482378500,6.36037841796875,-0.244206041097641,-0.2699623107910156,-0.4472087025642395
1788867448492338400,6.37033837890625,-0.2927429676055908,-0.23418807983398438,-0.4283716380596161
1788867448502298600,6.380298583984375,-0.29799601435661316,-0.1249108836054802,-0.31217506527900696
1788867448512258600,6.390258544921875,-0.24181289970874786,0.04677911847829819,-0.11489447951316833
1788867448522218500,6.400218505859375,-0.1351599395275116,0.2717236578464508,0.14645476639270782
1788867448532178400,6.410178466796875,-0.006603027693927288,0.5143392086029053,0.4249223470687866
1788867448542138600,6.420138671875,0.1256808638572693,0.6691554188728333,0.642458438873291
1788867448552099600,6.430099609375,0.2654232978820801,0.7418879866600037,0.7843908071517944
1788867448562059500,6.4400595703125,0.38553670048713684,0.7831045985221863,0.8623214960098267
1788867448572019500,6.45001953125,0.4512975811958313,0.7435161471366882,0.8600343465805054
1788867448581979400,6.4599794921875,0.46466562151908875,0.6525673270225525,0.7807682752609253
1788867448591939300,6.469939208984375,0.4099360704421997,0.46145063638687134,0.6367021799087524
1788867448601899500,6.4798994140625,0.3059551417827606,0.198726624250412,0.4382975697517395
1788867448611859500,6.489859375,0.1849362999200821,-0.1032436192035675,0.22811956703662872
1788867448621819400,6.4998193359375,0.04654964059591293,-0.4136565625667572,0.03346465900540352
1788867448631779300,6.509779296875,-0.08563848584890366,-0.655137836933136,-0.10622559487819672
1788867448641740500,6.519740478515625,-0.21271666884422302,-0.7956901788711548,-0.19401848316192627
1788867448651700500,6.529700439453125,-0.33273574709892273,-0.8583855032920837,-0.25844886898994446
1788867448661660400,6.539660400390625,-0.41089093685150146,-0.8300734162330627,-0.29850730299949646
1788867448671620600,6.54962060546875,-0.45963823795318604,-0.7416008114814758,-0.3158127963542938
1788867448681580500,6.55958056640625,-0.4761754870414734,-0.5828383564949036,-0.3028593957424164
1788867448691540500,6.56954052734375,-0.4518376588821411,-0.3995976746082306,-0.255856454372406
1788867448701500400,6.57950048828125,-0.3809582591056824,-0.22520840167999268,-0.1838402897119522
1788867448711460600,6.589460693359375,-0.285687118768692,-0.06878896802663803,-0.08467721939086914
1788867448721420500,6.599420654296875,-0.19007159769535065,0.04915756359696388,0.026355596259236336
1788867448731381500,6.609381591796875,-0.12293116748332977,0.10748051851987839,0.12830114364624023
1788867448741341700,6.619341796875,-0.0829356387257576,0.1150982528924942,0.20451520383358002
1788867448751301600,6.629301513671875,-0.06323836743831635,0.10722541809082031,0.24807333946228027
1788867448761261600,6.639261474609375,-0.05001557990908623,0.09156788140535355,0.26035019755363464
1788867448771221500,6.649221435546875,-0.05857870727777481,0.07494150102138519,0.24707381427288055
1788867448781181700,6.659181640625,-0.08941492438316345,0.048871759325265884,0.21168282628059387
1788867448791141600,6.6691416015625,-0.12020000070333481,0.018900811672210693,0.16379891335964203
1788867448801101600,6.6791015625,-0.1532864272594452,-0.020499449223279953,0.10991600900888443
1788867448811061500,6.6890615234375,-0.18637380003929138,-0.07391180843114853,0.054951027035713196
1788867448821022500,6.6990224609375,-0.2041187882423401,-0.12564276158809662,0.0017858296632766724
1788867448830982400,6.708982421875,-0.21643485128879547,-0.1655329316854477,-0.0378369465470314
1788867448840942600,6.718942626953125,-0.23186276853084564,-0.1719561666250229,-0.05515987053513527
1788867448850903000,6.728903076171875,-0.24739192426204681,-0.14843086898326874,-0.04854324832558632
1788867448860863000,6.738863037109375,-0.24885588884353638,-0.1080637201666832,-0.023605048656463623
1788867448870823000,6.748822998046875,-0.23259729146957397,-0.08097058534622192,0.013365487568080425
1788867448880783000,6.758783203125,-0.2002802938222885,-0.08946653455495834,0.04930778592824936
1788867448890743000,6.768742919921875,-0.16036084294319153,-0.12134616822004318,0.08603064715862274
1788867448900703000,6.778702880859375,-0.11953076720237732,-0.16171470284461975,0.12444145977497101
1788867448910664200,6.788664306640625,-0.09195054322481155,-0.18846721947193146,0.17082679271697998
1788867448920624000,6.7986240234375,-0.07334285974502563,-0.19614844024181366,0.2180957943201065
1788867448930584000,6.808583984375,-0.06201111525297165,-0.1841101497411728,0.255990207195282
1788867448940544300,6.818544189453125,-0.04298810288310051,-0.14777202904224396,0.29004091024398804
1788867448950504200,6.828504150390625,-0.023348089307546616,-0.09366697818040848,0.32434430718421936
1788867448960464100,6.838464111328125,-0.015506092458963394,-0.05057871714234352,0.34330055117607117
1788867448970424000,6.848424072265625,-0.01235450804233551,-0.029057446867227554,0.33866000175476074
1788867448980384000,6.858384033203125,-0.013823720626533031,-0.022334206849336624,0.3193811774253845
1788867448990344000,6.868343994140625,-0.0202291551977396,-0.019519245252013206,0.2970268726348877
1788867449000305000,6.878304931640625,-0.04137566685676575,-0.02407822385430336,0.2734883725643158
1788867449010265000,6.88826513671875,-0.0714092031121254,-0.032829370349645615,0.2544233500957489
1788867449020225000,6.89822509765625,-0.10627630352973938,-0.05611608549952507,0.2406061440706253
1788867449030185000,6.90818505859375,-0.14025796949863434,-0.07498031854629517,0.23439164459705353
1788867449040145000,6.918144775390625,-0.17140750586986542,-0.08886295557022095,0.23155257105827332
1788867449050105000,6.92810498046875,-0.1919628381729126,-0.10534099489450455,0.22725608944892883
1788867449060065000,6.93806494140625,-0.19286277890205383,-0.10140014439821243,0.22105349600315094
1788867449070025000,6.94802490234375,-0.18203063309192657,-0.09895429760217667,0.21387067437171936
1788867449079985000,6.95798486328125,-0.16270625591278076,-0.0907125174999237,0.21131287515163422
1788867449089946000,6.967946044921875,-0.1386059820652008,-0.07685635983943939,0.21770446002483368
1788867449099906000,6.977906005859375,-0.1195487231016159,-0.05820979177951813,0.2302912473678589
1788867449109866000,6.987865966796875,-0.0974748432636261,-0.022157249972224236,0.2614632844924927
1788867449119826200,6.997826171875,-0.06866515427827835,-0.010034772567451,0.29093098640441895
1788867449129786000,7.0077861328125,-0.04089264199137688,-0.08727923035621643,0.2834637463092804
1788867449139746000,7.01774609375,-0.028409406542778015,-0.2542274296283722,0.23841284215450287
1788867449149706200,7.027706298828125,-0.0934549868106842,-0.4001273810863495,0.13671550154685974
1788867449159666200,7.037666259765625,-0.2347532957792282,-0.5564754605293274,-0.030375923961400986
1788867449169626000,7.047626220703125,-0.38609248399734497,-0.6075777411460876,-0.21192388236522675
1788867449179587000,7.057587158203125,-0.5184820890426636,-0.5434106588363647,-0.37226149439811707
1788867449189547000,7.067547119140625,-0.6268868446350098,-0.3942243456840515,-0.4852982759475708
1788867449199507000,7.0775068359375,-0.7102946639060974,-0.18133701384067535,-0.5524409413337708
1788867449209467000,7.087466796875,-0.7412859201431274,0.05707315728068352,-0.5740243196487427
1788867449219427000,7.097427001953125,-0.7185034155845642,0.25699925422668457,-0.5615825653076172
1788867449229387000,7.107386962890625,-0.6523153185844421,0.41651034355163574,-0.516762912273407
1788867449239347000,7.117346923828125,-0.5725329518318176,0.5280813574790955,-0.45252725481987
1788867449249307000,7.127306884765625,-0.4873288869857788,0.5725542902946472,-0.381130576133728
1788867449259267000,7.13726708984375,-0.3991048336029053,0.5599393844604492,-0.31325486302375793
1788867449269228000,7.14722802734375,-0.31484454870224,0.49844321608543396,-0.24033775925636292
1788867449279188000,7.15718798828125,-0.2451946884393692,0.4238012135028839,-0.14217612147331238
1788867449289148200,7.167148193359375,-0.18601737916469574,0.366300106048584,-0.011610917747020721
1788867449299108000,7.177108154296875,-0.1514669507741928,0.34826165437698364,0.13292814791202545
1788867449309068000,7.187068115234375,-0.14356455206871033,0.32192113995552063,0.25837448239326477
1788867449319028000,7.197028076171875,-0.15934424102306366,0.2543388903141022,0.3439117968082428
1788867449328988200,7.20698828125,-0.19331473112106323,0.16605699062347412,0.368703156709671
1788867449338948000,7.216947998046875,-0.2444038987159729,0.050482410937547684,0.3252336382865906
1788867449348908000,7.226907958984375,-0.3032589554786682,-0.09165501594543457,0.22213147580623627
1788867449358869000,7.236868896484375,-0.36956197023391724,-0.22892418503761292,0.08227312564849854
1788867449368829000,7.246828857421875,-0.45159319043159485,-0.323688268661499,-0.06667321175336838
1788867449378788900,7.256788818359375,-0.5521336197853088,-0.37675175070762634,-0.21032677590847015
1788867449388749000,7.2667490234375,-0.6761317849159241,-0.4027654826641083,-0.33498695492744446
1788867449398709000,7.276708984375,-0.8194109797477722,-0.39389166235923767,-0.4211118817329407
1788867449408669000,7.2866689453125,-0.9662491679191589,-0.31446874141693115,-0.4605008363723755
1788867449418628900,7.29662890625,-1.092861294746399,-0.19411438703536987,-0.46558138728141785
1788867449428589000,7.306589111328125,-1.1795355081558228,-0.06400591880083084,-0.45953336358070374
1788867449438549000,7.316549072265625,-1.1849473714828491,0.059017959982156754,-0.41783854365348816
1788867449448510000,7.326510009765625,-1.1293150186538696,0.16736893355846405,-0.3334517776966095
1788867449458470100,7.33647021484375,-1.0380327701568604,0.2455025613307953,-0.21409545838832855
1788867449468430000,7.34643017578125,-0.9420997500419617,0.29919373989105225,-0.07333221286535263
1788867449478390000,7.35639013671875,-0.8777321577072144,0.31575921177864075,0.05444440245628357
1788867449488350000,7.366349853515625,-0.8445976376533508,0.3113657832145691,0.15455982089042664
1788867449498310100,7.37631005859375,-0.8404367566108704,0.26508671045303345,0.21395593881607056
1788867449508270000,7.38627001953125,-0.8687738180160522,0.18234096467494965,0.2293093204498291
1788867449518230000,7.39622998046875,-0.9382558465003967,0.07270337641239166,0.201180562376976
1788867449528190000,7.40618994140625,-1.0404218435287476,-0.05981951579451561,0.14332792162895203
1788867449538151000,7.41615087890625,-1.1594552993774414,-0.18798014521598816,0.06108338385820389
1788867449548110800,7.42611083984375,-1.2736375331878662,-0.28326910734176636,-0.037857312709093094
1788867449558070800,7.43607080078125,-1.367767095565796,-0.31621822714805603,-0.1261192411184311
1788867449568031000,7.446031005859375,-1.430071473121643,-0.29346445202827454,-0.18535460531711578
1788867449577991000,7.455990966796875,-1.4782706499099731,-0.26785796880722046,-0.21531009674072266
1788867449587950800,7.465950927734375,-1.5064563751220703,-0.25456055998802185,-0.2119837999343872
1788867449597911000,7.4759111328125,-1.5042524337768555,-0.24065175652503967,-0.1813192218542099
1788867449607871000,7.48587109375,-1.5047645568847656,-0.22415241599082947,-0.13083207607269287
1788867449617831000,7.495830810546875,-1.5091561079025269,-0.1953071504831314,-0.06652314960956573
1788867449627792100,7.505792236328125,-1.5236274003982544,-0.1713232547044754,-0.005901079159229994
1788867449637752000,7.515751953125,-1.540752649307251,-0.17160287499427795,0.04842549189925194
1788867449647712000,7.5257119140625,-1.558289885520935,-0.17986293137073517,0.0948859304189682
1788867449657672000,7.535671875,-1.5805546045303345,-0.18913471698760986,0.13313226401805878
1788867449667632000,7.545632080078125,-1.6186295747756958,-0.19322852790355682,0.16469232738018036
1788867449677592000,7.555592041015625,-1.662038803100586,-0.1950445920228958,0.19110345840454102
1788867449687552000,7.565552001953125,-1.7086331844329834,-0.2143394500017166,0.21739257872104645
1788867449697512000,7.575511962890625,-1.769286036491394,-0.23170916736125946,0.24054144322872162
1788867449707472100,7.58547216796875,-1.840736746788025,-0.24583058059215546,0.2407774031162262
1788867449717433000,7.59543310546875,-1.9104405641555786,-0.25470101833343506,0.2198106050491333
1788867449727393000,7.60539306640625,-1.9726159572601318,-0.2468380481004715,0.18424567580223083
1788867449737353000,7.61535302734375,-2.0331485271453857,-0.23021714389324188,0.15524587035179138
1788867449747313000,7.62531298828125,-2.087266683578491,-0.20447823405265808,0.14588619768619537
1788867449757272800,7.63527294921875,-2.124488353729248,-0.17995813488960266,0.15907777845859528
1788867449767233000,7.64523291015625,-2.146559715270996,-0.17445418238639832,0.18647025525569916
1788867449777193000,7.65519287109375,-2.150299549102783,-0.17263925075531006,0.21754875779151917
1788867449787153000,7.66515283203125,-2.1497864723205566,-0.16923412680625916,0.24794316291809082
1788867449797114000,7.675114013671875,-2.15216326713562,-0.15682262182235718,0.268673300743103
1788867449807074000,7.685073974609375,-2.1592555046081543,-0.14469006657600403,0.27521270513534546
1788867449817034000,7.695033935546875,-2.1678333282470703,-0.13652066886425018,0.2714713513851166
1788867449826994000,7.704993896484375,-2.176454544067383,-0.14239533245563507,0.26281020045280457
1788867449836954000,7.7149541015625,-2.1903200149536133,-0.17037315666675568,0.25454622507095337
1788867449846913000,7.7249130859375,-2.1993303298950195,-0.19997258484363556,0.2543608844280243
1788867449856873000,7.734873046875,-2.2080626487731934,-0.24501539766788483,0.2582348883152008
1788867449866833200,7.744833251953125,-2.2173638343811035,-0.2763877213001251,0.2677583694458008
1788867449876793000,7.75479296875,-2.220045328140259,-0.28678593039512634,0.2674817442893982
1788867449886754000,7.764754150390625,-2.2091288566589355,-0.2901439070701599,0.25495076179504395
1788867449896714200,7.77471435546875,-2.188222646713257,-0.2707502841949463,0.22344017028808594
1788867449906674200,7.784674072265625,-2.1725575923919678,-0.25098004937171936,0.1742824763059616
1788867449916634000,7.794634033203125,-2.1181576251983643,-0.19863061606884003,0.12904344499111176
1788867449926594000,7.804593994140625,-2.0690157413482666,-0.12344212830066681,0.09965012967586517
1788867449936554200,7.81455419921875,-2.036886692047119,-0.02904120273888111,0.08073235303163528
1788867449946514200,7.82451416015625,-2.00500750541687,0.04088302329182625,0.0664098709821701
1788867449956474000,7.83447412109375,-1.9440358877182007,0.10755367577075958,0.06643713265657425
1788867449966434000,7.84443408203125,-1.8793655633926392,0.14559079706668854,0.06250710040330887
1788867449976394200,7.854394287109375,-1.8263282775878906,0.15820948779582977,0.031871482729911804
1788867449986355000,7.86435498046875,-1.7633740901947021,0.13020022213459015,-0.03547826409339905
1788867449996315000,7.87431494140625,-1.700337290763855,0.030550701543688774,-0.129911407828331
1788867450006275000,7.884275146484375,-1.6630418300628662,-0.10548489540815353,-0.21472297608852386
1788867450016235000,7.894235107421875,-1.6434001922607422,-0.23889634013175964,-0.2618129551410675
1788867450026195000,7.90419482421875,-1.640345573425293,-0.3625578284263611,-0.26173412799835205
1788867450036155000,7.91415478515625,-1.6130592823028564,-0.4032633304595947,-0.20553213357925415
1788867450046115000,7.924114990234375,-1.5595263242721558,-0.3406055271625519,-0.09571082144975662
1788867450056075000,7.934074951171875,-1.4820350408554077,-0.18034489452838898,0.05751407518982887
1788867450066035000,7.944034912109375,-1.381973147392273,0.009687090292572975,0.2213466912508011
1788867450075996200,7.95399609375,-1.2671681642532349,0.18203718960285187,0.36653274297714233
1788867450085956000,7.9639560546875,-1.1600366830825806,0.30562731623649597,0.4723457396030426
1788867450095916000,7.973916015625,-1.059900164604187,0.3635973036289215,0.5378909111022949
1788867450105876200,7.983876220703125,-0.9620239734649658,0.34526222944259644,0.581444263458252
1788867450115836200,7.993836181640625,-0.8900967240333557,0.29127514362335205,0.6167470216751099
1788867450125796000,8.003796142578125,-0.8383864164352417,0.202137291431427,0.6382794976234436
1788867450135756000,8.013756103515625,-0.8151662945747375,0.09206665307283401,0.6436172723770142
1788867450145716200,8.02371630859375,-0.8226497769355774,-0.041455455124378204,0.6141754984855652
1788867450155676200,8.03367626953125,-0.8735216856002808,-0.1804654449224472,0.5603155493736267
1788867450165637000,8.04363720703125,-0.9385291934013367,-0.2816714346408844,0.48397260904312134
1788867450175597300,8.053597412109376,-1.022428274154663,-0.37482279539108276,0.3938911557197571
1788867450185557200,8.06355712890625,-1.074366569519043,-0.4286114573478699,0.319820374250412
1788867450195517200,8.07351708984375,-1.0916365385055542,-0.42897069454193115,0.25766417384147644
1788867450205477000,8.08347705078125,-1.090251088142395,-0.4288484752178192,0.20599724352359772
1788867450215437000,8.09343701171875,-1.0824215412139893,-0.4225001931190491,0.16987504065036774
1788867450225397000,8.10339697265625,-1.0875015258789062,-0.4284699559211731,0.12556563317775726
1788867450235357000,8.11335693359375,-1.0858204364776611,-0.4507944583892822,0.08633321523666382
1788867450245316900,8.12331689453125,-1.0682885646820068,-0.45970672369003296,0.06126515194773674
1788867450255278000,8.133278076171875,-1.043512225151062,-0.43790045380592346,0.07090290635824203
1788867450265238000,8.143238037109375,-0.9925172924995422,-0.37285116314888,0.1119009405374527
1788867450275198000,8.153197998046876,-0.913658082485199,-0.25371217727661133,0.17550921440124512
1788867450285158100,8.163158203125,-0.8201115727424622,-0.1085834875702858,0.25162026286125183
1788867450295118000,8.1731181640625,-0.7562661170959473,0.021142801269888878,0.309760719537735
1788867450305078000,8.183078125,-0.7309107184410095,0.08670450001955032,0.3249084949493408
1788867450315038200,8.1930380859375,-0.7147328853607178,0.11108197271823883,0.29741817712783813
1788867450324998100,8.202998046875,-0.6937910914421082,0.08534518629312515,0.2520059645175934
1788867450334958000,8.2129580078125,-0.6948078870773315,0.004247352946549654,0.20715728402137756
1788867450344919300,8.222919189453124,-0.7073047757148743,-0.10871861129999161,0.1723838448524475
1788867450354879200,8.232879150390625,-0.7057854533195496,-0.243885800242424,0.1519758105278015
1788867450364839200,8.242839111328125,-0.683123767375946,-0.37778979539871216,0.1351158767938614
1788867450374799000,8.252799072265624,-0.6430093050003052,-0.47715815901756287,0.1305048018693924
1788867450384759300,8.26275927734375,-0.5914071202278137,-0.5078181028366089,0.13559703528881073
1788867450394719200,8.27271923828125,-0.5375378131866455,-0.47180870175361633,0.1383124738931656
1788867450404679200,8.28267919921875,-0.48565229773521423,-0.39844396710395813,0.12776048481464386
1788867450414639000,8.29263916015625,-0.4367208480834961,-0.3213067054748535,0.08367370814085007
1788867450424599300,8.302599365234375,-0.3904138207435608,-0.26512518525123596,0.010656487196683884
1788867450434560000,8.31256005859375,-0.35126176476478577,-0.23231631517410278,-0.07167815417051315
1788867450444520000,8.32252001953125,-0.3201557695865631,-0.22643525898456573,-0.13655275106430054
1788867450454480100,8.332480224609375,-0.29848313331604004,-0.22739563882350922,-0.16421961784362793
1788867450464440000,8.342440185546875,-0.285077840089798,-0.2220352292060852,-0.14786861836910248
1788867450474400000,8.35239990234375,-0.27793610095977783,-0.20399793982505798,-0.1042373850941658
1788867450484360200,8.362360107421875,-0.2742832899093628,-0.1768701821565628,-0.04526674374938011
1788867450494320000,8.372320068359375,-0.27737584710121155,-0.14395955204963684,0.009800290688872337
1788867450504280000,8.382280029296876,-0.2927228510379791,-0.11523069441318512,0.040415991097688675
1788867450514240000,8.392239990234375,-0.303932785987854,-0.10652387142181396,0.04072530195116997
1788867450524201200,8.402201171875,-0.3130330741405487,-0.11613868176937103,0.009908530861139297
1788867450534161200,8.4121611328125,-0.31602782011032104,-0.15522679686546326,-0.030074769631028175
1788867450544121000,8.42212109375,-0.3172147870063782,-0.2155276983976364,-0.05442884564399719
1788867450554081300,8.432081298828125,-0.3201389014720917,-0.2735210955142975,-0.05432052165269852
1788867450564041200,8.442041259765626,-0.315181165933609,-0.30629611015319824,-0.022858204320073128
1788867450574001200,8.452001220703124,-0.29453980922698975,-0.30511653423309326,0.03030308336019516
1788867450583961000,8.461961181640625,-0.26322874426841736,-0.29509878158569336,0.09447860717773438
1788867450593921300,8.47192138671875,-0.2177867591381073,-0.27107343077659607,0.16155101358890533
1788867450603881200,8.481881103515626,-0.1640055626630783,-0.24381355941295624,0.2208620011806488
1788867450613842000,8.491842041015625,-0.12192709743976593,-0.229726180434227,0.2493046075105667
1788867450623802000,8.501802001953125,-0.096619613468647,-0.22857649624347687,0.2343246042728424
1788867450633762000,8.511761962890626,-0.08305925130844116,-0.2426743060350418,0.18531155586242676
1788867450643722000,8.521721923828125,-0.08859782665967941,-0.27243539690971375,0.12602531909942627
1788867450653682000,8.531681884765625,-0.10999380052089691,-0.3069618344306946,0.07872559875249863
1788867450663642000,8.54164208984375,-0.13269858062267303,-0.3271358013153076,0.06029306352138519
1788867450673602000,8.55160205078125,-0.1370244175195694,-0.3229050934314728,0.06649814546108246
1788867450683562000,8.56156201171875,-0.12341459840536118,-0.2925005555152893,0.08946923911571503
1788867450693523200,8.571523193359376,-0.0963403657078743,-0.2398417443037033,0.11492211371660233
1788867450703483100,8.581483154296874,-0.07316499948501587,-0.1668815165758133,0.1411108374595642
1788867450713443000,8.591443115234375,-0.06553953140974045,-0.12851905822753906,0.13547281920909882
1788867450723403300,8.6014033203125,-0.06867274641990662,-0.16852480173110962,0.07177747040987015
1788867450733363200,8.61136328125,-0.07116491347551346,-0.2688085734844208,-0.03103019669651985
1788867450743323100,8.6213232421875,-0.09660555422306061,-0.36318594217300415,-0.13736756145954132
1788867450753283000,8.631282958984375,-0.14695857465267181,-0.411121666431427,-0.2182762175798416
1788867450763243300,8.6412431640625,-0.19779326021671295,-0.40053585171699524,-0.2648589015007019
1788867450773203200,8.651203125,-0.22928443551063538,-0.34848111867904663,-0.2715522348880768
1788867450783164000,8.661163818359375,-0.23960603773593903,-0.2748316824436188,-0.25067993998527527
1788867450793124000,8.6711240234375,-0.23146148025989532,-0.18219079077243805,-0.21302123367786407
1788867450803084000,8.681083984375,-0.22120192646980286,-0.06861389428377151,-0.1670023500919342
1788867450813044000,8.6910439453125,-0.20411403477191925,0.04961375147104263,-0.11870879679918289
1788867450823004000,8.70100390625,-0.16676665842533112,0.15817458927631378,-0.0733405202627182
1788867450832964000,8.710964111328124,-0.11274874210357666,0.23189286887645721,-0.03675015643239021
1788867450842924000,8.720924072265625,-0.060850657522678375,0.2572126090526581,-0.010244779288768768
1788867450852885000,8.730885009765625,-0.016884811222553253,0.24422842264175415,0.017946943640708923
1788867450862845200,8.74084521484375,0.016819888725876808,0.18763864040374756,0.04649150371551514
1788867450872805000,8.75080517578125,0.050645988434553146,0.09324143826961517,0.0781124010682106
1788867450882766000,8.76076611328125,0.0841115415096283,-0.028955312445759773,0.11842227727174759
1788867450892726300,8.770726318359374,0.09459023177623749,-0.1628021001815796,0.1558440774679184
1788867450902686200,8.780686279296875,0.10704050958156586,-0.25430455803871155,0.19361010193824768
1788867450912646100,8.790646240234375,0.09785608947277069,-0.30327460169792175,0.21788768470287323
1788867450922606000,8.800606201171876,0.07221730053424835,-0.28552114963531494,0.22412294149398804
1788867450932566300,8.810566162109374,0.034345149993896484,-0.22916695475578308,0.20688284933567047
1788867450942526200,8.820526123046875,-0.004758309572935104,-0.173245370388031,0.16401714086532593
1788867450952486100,8.830486083984376,-0.03656411170959473,-0.131626158952713,0.11636687070131302
1788867450962446300,8.8404462890625,-0.07639594376087189,-0.1098252460360527,0.060158729553222656
1788867450972407000,8.850406982421875,-0.11420900374650955,-0.09011924266815186,0.017438942566514015
1788867450982367000,8.860366943359375,-0.1443709135055542,-0.04471154510974884,-0.0009318101219832897
1788867450992327200,8.8703271484375,-0.17635208368301392,0.027654515579342842,0.004539610352367163
1788867451002287000,8.880287109375,-0.20296984910964966,0.1132836639881134,0.02480919472873211
1788867451012247000,8.8902470703125,-0.21800635755062103,0.1809774488210678,0.03783164918422699
1788867451022207000,8.90020703125,-0.2207411527633667,0.2064652442932129,0.03193913772702217
1788867451032167200,8.910167236328125,-0.20455102622509003,0.20590268075466156,0.018459614366292953
1788867451042127000,8.920127197265625,-0.17230626940727234,0.2043527215719223,0.019967496395111084
1788867451052088000,8.930088134765626,-0.12948846817016602,0.19666250050067902,0.0331026092171669
1788867451062048300,8.94004833984375,-0.08672580868005753,0.15655742585659027,0.040295809507369995
1788867451072008200,8.95000830078125,-0.050617512315511703,0.08157732337713242,0.03292149305343628
1788867451081968000,8.959968017578126,-0.034130681306123734,-0.026841826736927032,0.006649940740317106
1788867451091928000,8.969927978515624,-0.041557930409908295,-0.1399070918560028,-0.03864309936761856
1788867451101888300,8.97988818359375,-0.060347866266965866,-0.2121378779411316,-0.08689691871404648
1788867451111848200,8.98984814453125,-0.08363699913024902,-0.22636447846889496,-0.12976059317588806
1788867451121808100,8.99980810546875,-0.09843724966049194,-0.22006744146347046,-0.16721634566783905
1788867451131768000,9.00976806640625,-0.10521665215492249,-0.20436912775039673,-0.19429172575473785
1788867451141728300,9.019728271484375,-0.10063734650611877,-0.17161916196346283,-0.20376379787921906
1788867451151689000,9.02968896484375,-0.07922142744064331,-0.11763513088226318,-0.1970023512840271
1788867451161649000,9.03964892578125,-0.04925128445029259,-0.03951236233115196,-0.17404989898204803
1788867451171609000,9.049609130859375,-0.01481068879365921,0.05735902115702629,-0.1325998604297638
1788867451181569000,9.059569091796876,0.01864527352154255,0.1578635275363922,-0.0791853591799736
1788867451191529000,9.069529052734374,0.054336950182914734,0.2382303774356842,-0.002303862711414695
1788867451201489200,9.0794892578125,0.07955202460289001,0.28062817454338074,0.06964223831892014
1788867451211449000,9.089448974609375,0.09758150577545166,0.26337411999702454,0.11806018650531769
1788867451221409000,9.099408935546874,0.12122052907943726,0.2073388248682022,0.15024715662002563
1788867451231369000,9.109368896484375,0.13249719142913818,0.1277441680431366,0.16022269427776337
1788867451241330200,9.119330078125,0.13164924085140228,0.029606152325868607,0.144259974360466
1788867451251290000,9.1292900390625,0.12399596720933914,-0.05996117368340492,0.12358947098255157
1788867451261250000,9.13925,0.11621501296758652,-0.11649156361818314,0.10805098712444305
1788867451271210200,9.149210205078125,0.09878318756818771,-0.14032818377017975,0.09570008516311646
1788867451281170200,9.159170166015626,0.07785873115062714,-0.14086054265499115,0.08304448425769806
1788867451291130000,9.169130126953124,0.05634642019867897,-0.11571405082941055,0.06079486012458801
1788867451301090000,9.179090087890625,0.03809870406985283,-0.08961053937673569,0.02130684070289135
1788867451311050200,9.18905029296875,0.018350845202803612,-0.07274282723665237,-0.031210729852318764
1788867451321010200,9.19901025390625,-0.007807255256921053,-0.06736297905445099,-0.07964244484901428
1788867451330971000,9.208970947265625,-0.03059580735862255,-0.062449123710393906,-0.10909948498010635
1788867451340931000,9.21893115234375,-0.051811084151268005,-0.04959137737751007,-0.11540691554546356
1788867451350891000,9.22889111328125,-0.0637940838932991,-0.009518799372017384,-0.10124816745519638
1788867451360851000,9.238850830078125,-0.07283178716897964,0.026296988129615784,-0.07295767217874527
1788867451370811000,9.248810791015625,-0.06082109734416008,0.06780816614627838,-0.03119746595621109
1788867451380771000,9.25877099609375,-0.032268550246953964,0.11899545043706894,0.007659386843442917
1788867451390731000,9.26873095703125,0.02679303288459778,0.16869547963142395,0.05418282747268677
1788867451400691000,9.27869091796875,0.08246827870607376,0.2017466276884079,0.08871231228113174
1788867451410651100,9.288651123046876,0.12004756927490234,0.21323946118354797,0.10875539481639862
1788867451420612000,9.298612060546875,0.15031254291534424,0.22678376734256744,0.12092471122741699
1788867451430572000,9.308572021484375,0.1622903048992157,0.24799615144729614,0.1252450793981552
1788867451440532200,9.3185322265625,0.16756309568881989,0.274270623922348,0.12643951177597046
1788867451450492200,9.3284921875,0.17118723690509796,0.30166253447532654,0.13056358695030212
1788867451460452000,9.3384521484375,0.17846593260765076,0.33700188994407654,0.14398352801799774
1788867451470412000,9.348412109375,0.19018691778182983,0.3943866491317749,0.17053505778312683
1788867451480372200,9.358372314453124,0.21083414554595947,0.47223109006881714,0.2001217156648636
1788867451490332200,9.368332275390625,0.2455318719148636,0.5227102041244507,0.20656618475914001
1788867451500292000,9.3782919921875,0.2756649851799011,0.47302544116973877,0.16310206055641174
1788867451510253300,9.38825341796875,0.29416990280151367,0.35384252667427063,0.08963236957788467
1788867451520213200,9.398213134765625,0.2513343095779419,0.19765958189964294,-0.04363194480538368
1788867451530173200,9.408173095703125,0.1885330229997635,0.050642192363739014,-0.20713481307029724
1788867451540133000,9.418133056640626,0.1305363029241562,-0.08271665871143341,-0.3474346697330475
1788867451550093000,9.428093017578124,0.07089223712682724,-0.23228125274181366,-0.4225829839706421
1788867451560053000,9.438052978515625,-0.0028690630570054054,-0.38224732875823975,-0.42574360966682434
1788867451570013000,9.448012939453125,-0.08902353048324585,-0.4837999641895294,-0.3828364908695221
1788867451579972900,9.457972900390626,-0.11463701725006104,-0.4983690679073334,-0.2933103144168854
1788867451589933000,9.46793310546875,-0.09502461552619934,-0.42800039052963257,-0.15206500887870789
1788867451599894000,9.47789404296875,-0.03448111563920975,-0.23341280221939087,0.05473371967673302
1788867451609854000,9.48785400390625,0.0516362264752388,0.06370007991790771,0.27874940633773804
1788867451619814100,9.497814208984375,0.15209493041038513,0.3637799918651581,0.4345821440219879
1788867451629774000,9.507774169921875,0.26625996828079224,0.598913311958313,0.4820541739463806
1788867451639734000,9.517734130859376,0.37267881631851196,0.747302234172821,0.4527660608291626
1788867451649694200,9.527694091796874,0.43411877751350403,0.7625448107719421,0.3572663366794586
1788867451659654100,9.537654052734375,0.43423864245414734,0.667277991771698,0.233018696308136
1788867451669614000,9.547614013671875,0.40182191133499146,0.49903300404548645,0.09420842677354813
1788867451679574000,9.557573974609374,0.335694819688797,0.24207232892513275,-0.04879693314433098
1788867451689535200,9.56753515625,0.25245237350463867,-0.007389263715595007,-0.15121546387672424
1788867451699495200,9.5774951171875,0.13654522597789764,-0.18738166987895966,-0.1832633912563324
1788867451709455000,9.587455078125,0.024285582825541496,-0.30444657802581787,-0.14653778076171875
1788867451719415300,9.597415283203125,-0.07058819383382797,-0.34499162435531616,-0.08601050823926926
1788867451729375200,9.607375244140625,-0.1270507276058197,-0.3371436297893524,-0.03891900181770325
1788867451739335200,9.617335205078126,-0.1505691111087799,-0.2719947397708893,-0.028570489957928658
1788867451749295000,9.627295166015625,-0.1407254934310913,-0.17577962577342987,-0.0425492562353611
1788867451759255300,9.63725537109375,-0.1189538910984993,-0.0652424544095993,-0.06439676135778427
1788867451769215200,9.64721533203125,-0.10558020323514938,0.03597211465239525,-0.07826117426156998
1788867451779176000,9.657176025390624,-0.0995984822511673,0.10955046117305756,-0.0729961022734642
1788867451789136100,9.66713623046875,-0.09741958975791931,0.13648417592048645,-0.05358772352337837
1788867451799096000,9.677095947265625,-0.09700626879930496,0.12030306458473206,-0.02223166823387146
1788867451809056000,9.687055908203124,-0.10201631486415863,0.08438047766685486,0.013224111869931221
1788867451819016200,9.69701611328125,-0.11144736409187317,0.046996891498565674,0.044729843735694885
1788867451828976000,9.70697607421875,-0.1284334361553192,0.01821744441986084,0.06361213326454163
1788867451838936000,9.71693603515625,-0.14309918880462646,-0.0048244912177324295,0.06859943270683289
1788867451848895700,9.726895751953125,-0.15595658123493195,-0.030156675726175308,0.05833109840750694
1788867451858855700,9.736855712890625,-0.16589896380901337,-0.0577201247215271,0.03934302553534508
1788867451868816600,9.746816650390626,-0.17885412275791168,-0.08328931033611298,0.011661168187856674
1788867451878776800,9.75677685546875,-0.1924101561307907,-0.09270545095205307,-0.012477455660700798
1788867451888736800,9.76673681640625,-0.1958848088979721,-0.07014665007591248,-0.027491431683301926
1788867451898696700,9.77669677734375,-0.1964041292667389,-0.010887851938605309,-0.018057983368635178
1788867451908657000,9.786656982421874,-0.1954534500837326,0.06054609641432762,0.00324273481965065
1788867451918616800,9.796616943359375,-0.19386380910873413,0.1187894269824028,0.021139442920684814
1788867451928576800,9.80657666015625,-0.18214578926563263,0.1381951868534088,0.028479531407356262
1788867451938536700,9.81653662109375,-0.16239924728870392,0.12331371009349823,0.024054156616330147
1788867451948497000,9.826496826171875,-0.14643104374408722,0.07896094024181366,0.014341697096824646
1788867451958457600,9.83645751953125,-0.1393134742975235,0.029379533603787422,0.004382272716611624
1788867451968417500,9.84641748046875,-0.14299386739730835,-0.025513632223010063,-0.01411769725382328
1788867451978377700,9.856377685546875,-0.1509990692138672,-0.06892795115709305,-0.03290869668126106
1788867451988337700,9.866337646484375,-0.1573428511619568,-0.09589596092700958,-0.048534613102674484
1788867451998297600,9.876297607421876,-0.1514095962047577,-0.1087007075548172,-0.05905543267726898
1788867452008257500,9.886257568359374,-0.12834711372852325,-0.10425345599651337,-0.06284762918949127
1788867452018217700,9.8962177734375,-0.09475400298833847,-0.09363862872123718,-0.06144468113780022
1788867452028177700,9.906177734375,-0.05523835867643356,-0.09356957674026489,-0.05775251239538193
1788867452038137600,9.9161376953125,-0.021483855322003365,-0.10356467962265015,-0.04586523026227951
1788867452048098800,9.926098876953125,0.003960411064326763,-0.10938627272844315,-0.01877496764063835
1788867452058058800,9.936058837890625,0.015495095402002335,-0.10098505765199661,0.014179788529872894
1788867452068018700,9.946018798828124,0.01760696992278099,-0.08804437518119812,0.03786011412739754
1788867452077978600,9.955978515625,0.01444260310381651,-0.07262572646141052,0.039953622967004776
1788867452087938800,9.965938720703125,0.01264212466776371,-0.0619216188788414,0.01749679259955883
1788867452097898800,9.975898681640626,0.012425077147781849,-0.06312297284603119,-0.018454017117619514
1788867452107858700,9.985858642578124,0.013058791868388653,-0.06320922076702118,-0.056560032069683075
1788867452117819000,9.99581884765625,0.018228519707918167,-0.05559204891324043,-0.08529447764158249
1788867452127778800,10.00577880859375,0.02260841801762581,-0.03818655014038086,-0.09407404810190201
1788867452137738800,10.01573876953125,0.023569554090499878,-0.03344026580452919,-0.09318987280130386
1788867452147699700,10.02569970703125,0.03147496283054352,-0.04847480356693268,-0.09218958020210266
1788867452157659600,10.03565966796875,0.044156137853860855,-0.08819291740655899,-0.09900408238172531
1788867452167619600,10.04561962890625,0.06116148829460144,-0.13432420790195465,-0.10740555077791214
1788867452177579500,10.05557958984375,0.07429566234350204,-0.17414671182632446,-0.10713524371385574
1788867452187539700,10.065539794921875,0.07713621854782104,-0.18458698689937592,-0.09559236466884613
1788867452197499600,10.075499755859376,0.07233960181474686,-0.17469415068626404,-0.0827101320028305
1788867452207459600,10.08545947265625,0.07498735189437866,-0.15233315527439117,-0.07535301148891449
1788867452217419500,10.09541943359375,0.08827066421508789,-0.1299538016319275,-0.07114361226558685
1788867452227380700,10.105380615234376,0.10460185259580612,-0.11285654455423355,-0.06368134915828705
1788867452237340700,10.115340576171874,0.11782445013523102,-0.07259807735681534,-0.04017016291618347
1788867452247300600,10.125300537109375,0.13821086287498474,-0.025242077186703682,-0.003480338491499424
1788867452257260800,10.1352607421875,0.15842293202877045,0.015323192812502384,0.036009278148412704
1788867452267220700,10.145220703125,0.17475934326648712,0.03982201963663101,0.07252262532711029
1788867452277180700,10.1551806640625,0.181623637676239,0.037739694118499756,0.09384629130363464
1788867452287140600,10.165140625,0.19695855677127838,-0.010947329923510551,0.1042446568608284
1788867452297100800,10.175100830078126,0.21217000484466553,-0.11391259729862213,0.07750944793224335
1788867452307060700,10.185060791015625,0.1774829477071762,-0.27209198474884033,0.011231334879994392
1788867452317020700,10.195020751953125,0.10306757688522339,-0.3838214576244354,-0.053796134889125824
1788867452326982000,10.20498193359375,0.010273647494614124,-0.38339295983314514,-0.10194879025220871
1788867452336941800,10.21494189453125,-0.06749971210956573,-0.27680259943008423,-0.13252827525138855
1788867452346901800,10.22490185546875,-0.12132703512907028,-0.11138598620891571,-0.16607597470283508
1788867452356862000,10.234862060546876,-0.14911924302577972,0.012838762253522873,-0.22473077476024628
1788867452366822000,10.24482177734375,-0.15431815385818481,0.02197745442390442,-0.31733375787734985
1788867452376781800,10.25478173828125,-0.16587521135807037,-0.045368827879428864,-0.4113878011703491
1788867452386741800,10.26474169921875,-0.19379761815071106,-0.12528200447559357,-0.48778021335601807
1788867452396701700,10.27470166015625,-0.2292805016040802,-0.18554960191249847,-0.5322149991989136
1788867452406661600,10.28466162109375,-0.2653234004974365,-0.19656269252300262,-0.5281752347946167
1788867452416622600,10.29462255859375,-0.28780606389045715,-0.15625281631946564,-0.4870951473712921
1788867452426582800,10.304582763671876,-0.2619127035140991,-0.04958374425768852,-0.3996083736419678
1788867452436542700,10.314542724609375,-0.21489858627319336,0.06409035623073578,-0.2801717221736908
1788867452446502700,10.324502685546875,-0.1127663105726242,0.1796037256717682,-0.12955869734287262
1788867452456462600,10.334462646484376,0.00597791513428092,0.2912876605987549,0.023156821727752686
1788867452466422800,10.3444228515625,0.09608251601457596,0.35053741931915283,0.1451290398836136
1788867452476382700,10.3543828125,0.16336755454540253,0.33250516653060913,0.2222680300474167
1788867452486342700,10.3643427734375,0.2083786576986313,0.21433936059474945,0.2687283158302307
1788867452496302800,10.374302734375,0.22143320739269257,0.031095227226614952,0.25856515765190125
1788867452506263800,10.384263916015625,0.18458589911460876,-0.19757303595542908,0.19624529778957367
1788867452516223700,10.3942236328125,0.12412069737911224,-0.3981681764125824,0.10353134572505951
1788867452526184000,10.404183837890624,0.05319279804825783,-0.5128586292266846,0.007785948924720287
1788867452536144000,10.414143798828125,-0.033782314509153366,-0.5217804908752441,-0.07171420753002167
1788867452546103800,10.424103759765625,-0.1372028887271881,-0.4704362452030182,-0.14088793098926544
1788867452556063700,10.434063720703126,-0.21810971200466156,-0.378172904253006,-0.1988241970539093
1788867452566024000,10.44402392578125,-0.26399096846580505,-0.248011976480484,-0.23473843932151794
1788867452575983900,10.45398388671875,-0.2850711941719055,-0.11290659755468369,-0.2596898674964905
1788867452585943800,10.46394384765625,-0.26378557085990906,0.037205569446086884,-0.25135788321495056
1788867452595904800,10.47390478515625,-0.2308632731437683,0.13199305534362793,-0.20753130316734314
1788867452605864700,10.48386474609375,-0.17998120188713074,0.1984160989522934,-0.12360571324825287
1788867452615824600,10.49382470703125,-0.10382626205682755,0.23976247012615204,-0.016769545152783394
1788867452625784600,10.50378466796875,-0.03455021604895592,0.2663457691669464,0.07873131334781647
1788867452635744800,10.513744873046875,0.016199247911572456,0.26975753903388977,0.14394894242286682
1788867452645704700,10.52370458984375,0.043730247765779495,0.24617697298526764,0.17489100992679596
1788867452655664600,10.53366455078125,0.04243249073624611,0.20628389716148376,0.16805893182754517
1788867452665624600,10.54362451171875,0.018699059262871742,0.14388470351696014,0.1387890875339508
1788867452675584800,10.553584716796875,-0.010051628574728966,0.10800634324550629,0.10223480314016342
1788867452685545700,10.563545654296876,-0.06093510612845421,0.06292586028575897,0.0339650884270668
1788867452695505700,10.573505615234374,-0.10395340621471405,0.034476641565561295,-0.04426473379135132
1788867452705465900,10.5834658203125,-0.1405067890882492,0.021828442811965942,-0.12636761367321014
1788867452715425800,10.59342578125,-0.16389255225658417,0.02230221778154373,-0.2032615840435028
1788867452725385700,10.6033857421875,-0.1717694252729416,0.03537696972489357,-0.26147204637527466
1788867452735346000,10.613345947265625,-0.16370058059692383,0.05277273803949356,-0.28792470693588257
1788867452745305900,10.623305908203125,-0.15332302451133728,0.07496742904186249,-0.28442397713661194
1788867452755265800,10.633265869140626,-0.13481992483139038,0.09531877934932709,-0.2605127692222595
1788867452765225700,10.643225830078125,-0.10275255143642426,0.11769726872444153,-0.214742049574852
1788867452775186700,10.653186767578125,-0.06368477642536163,0.1377016007900238,-0.1637401133775711
1788867452785146600,10.663146728515626,-0.02311518043279648,0.14867006242275238,-0.1114582046866417
1788867452795106600,10.6731064453125,0.01261112466454506,0.16240078210830688,-0.06492052972316742
1788867452805066800,10.683066650390625,0.026249460875988007,0.18035006523132324,-0.027146851643919945
1788867452815026700,10.693026611328126,0.022987354546785355,0.1939534991979599,-0.006832258775830269
1788867452824986600,10.702986572265624,0.010206056758761406,0.19184760749340057,-0.0026612444780766964
1788867452834946600,10.712946533203125,-0.002382705919444561,0.1621222048997879,-0.008822999894618988
1788867452844906800,10.72290673828125,-0.018767697736620903,0.10965678095817566,-0.011710988357663155
1788867452854866700,10.73286669921875,-0.03540180251002312,0.0490080788731575,-0.010216156020760536
1788867452864828000,10.742827880859375,-0.0565623976290226,-0.001402826514095068,0.002402978017926216
1788867452874787800,10.752787841796875,-0.08442492038011551,-0.033594585955142975,0.019003260880708694
1788867452884747800,10.762747802734374,-0.11867093294858932,-0.04515332728624344,0.03282474726438522
1788867452894708000,10.7727080078125,-0.16372708976268768,-0.027274994179606438,0.047452691942453384
1788867452904668000,10.78266796875,-0.21893815696239471,0.018738949671387672,0.058235593140125275
1788867452914627800,10.7926279296875,-0.276769757270813,0.08914972841739655,0.07063847035169601
1788867452924588000,10.802588134765625,-0.33465495705604553,0.1641751527786255,0.08335468918085098
1788867452934548000,10.8125478515625,-0.3873453140258789,0.22040380537509918,0.09598233550786972
1788867452944508000,10.8225078125,-0.4389411211013794,0.23864270746707916,0.1032385528087616
1788867452954467800,10.8324677734375,-0.49581265449523926,0.21445055305957794,0.10458292067050934
1788867452964428800,10.8424287109375,-0.5628882646560669,0.16899093985557556,0.10003738105297089
1788867452974388700,10.852388671875,-0.6386706233024597,0.13930681347846985,0.09943444281816483
1788867452984348700,10.8623486328125,-0.7130644917488098,0.13166628777980804,0.10274091362953186
1788867452994308900,10.872308837890625,-0.7831053733825684,0.13760539889335632,0.10196753591299057
1788867453004268800,10.882268798828125,-0.8443959355354309,0.14965420961380005,0.08480231463909149
1788867453014228700,10.892228759765626,-0.8937845230102539,0.1669335961341858,0.053066764026880264
1788867453024188700,10.902188720703125,-0.9363011717796326,0.18979541957378387,0.020586209371685982
1788867453034148900,10.91214892578125,-0.9765295386314392,0.21173879504203796,-0.000952637754380703
1788867453044108800,10.92210888671875,-1.0284266471862793,0.23460939526557922,0.002340744249522686
1788867453054069800,10.93206982421875,-1.0804415941238403,0.2580782175064087,0.006704333238303661
1788867453064030000,10.942030029296875,-1.1188995838165283,0.25794339179992676,0.0007562059909105301
1788867453073990000,10.951989990234376,-1.1540242433547974,0.24132046103477478,-0.020083295181393623
1788867453083949800,10.96194970703125,-1.1893564462661743,0.1949751377105713,-0.06319548189640045
1788867453093909800,10.97190966796875,-1.2201242446899414,0.13186194002628326,-0.11534710228443146
1788867453103870000,10.981869873046875,-1.2518163919448853,0.0698857456445694,-0.15845605731010437
1788867453113830000,10.991829833984376,-1.290543794631958,0.020902488380670547,-0.17839407920837402
1788867453123789800,11.001789794921875,-1.3425387144088745,0.0058508580550551414,-0.1796015202999115
1788867453133750000,11.01175,-1.4058327674865723,0.013227282091975212,-0.18241143226623535
1788867453143711000,11.0217109375,-1.465466856956482,0.042426690459251404,-0.1981685906648636
1788867453153671000,11.0316708984375,-1.5257270336151123,0.044948969036340714,-0.24389320611953735
1788867453163630800,11.041630859375,-1.5875885486602783,0.019112275913357735,-0.3011406660079956
1788867453173590800,11.0515908203125,-1.6353448629379272,-0.02212624065577984,-0.3304130733013153
1788867453183550700,11.06155078125,-1.6815383434295654,-0.07687777280807495,-0.3049381375312805
1788867453193510700,11.0715107421875,-1.7298595905303955,-0.11485977470874786,-0.22687821090221405
1788867453203470800,11.081470947265625,-1.755496621131897,-0.10818227380514145,-0.10203181952238083
1788867453213430800,11.0914306640625,-1.7219983339309692,-0.027465052902698517,0.061368294060230255
1788867453223390700,11.101390625,-1.6780308485031128,0.08146140724420547,0.2419750988483429
1788867453233352000,11.11135205078125,-1.6386820077896118,0.19775259494781494,0.4118485450744629
1788867453243311900,11.121311767578124,-1.5981365442276,0.3169155716896057,0.5422998666763306
1788867453253271800,11.131271728515625,-1.5715694427490234,0.3451443016529083,0.6012182831764221
1788867453263231700,11.141231689453125,-1.5498108863830566,0.2900960445404053,0.6280348300933838
1788867453273192000,11.15119189453125,-1.5307796001434326,0.16907480359077454,0.6232696175575256
1788867453283152000,11.16115185546875,-1.5670952796936035,-0.06332052499055862,0.5642839074134827
1788867453293111800,11.17111181640625,-1.6453171968460083,-0.329911470413208,0.4525187313556671
1788867453303071700,11.18107177734375,-1.7427433729171753,-0.5759514570236206,0.2959340810775757
1788867453313032000,11.191031982421874,-1.8295658826828003,-0.7417367100715637,0.1409546136856079
1788867453322993000,11.200992919921875,-1.9338746070861816,-0.8063690066337585,0.015660077333450317
1788867453332952800,11.210952880859375,-2.049393653869629,-0.817915141582489,-0.07597076892852783
1788867453342913000,11.2209130859375,-2.1601734161376953,-0.7450771331787109,-0.13499414920806885
1788867453352873000,11.230873046875,-2.205500364303589,-0.5940042734146118,-0.1460915207862854
1788867453362833000,11.2408330078125,-2.2058773040771484,-0.4039026200771332,-0.11970668286085129
1788867453372792800,11.250792724609376,-2.181405544281006,-0.20866146683692932,-0.0557016022503376
1788867453382752800,11.260752685546874,-2.1181864738464355,-0.030953142791986465,0.054994579404592514
1788867453392712700,11.270712646484375,-2.0128259658813477,0.10067279636859894,0.19351650774478912
1788867453402672600,11.280672607421875,-1.8827219009399414,0.15489353239536285,0.332622230052948
1788867453412633900,11.2906337890625,-1.7654606103897095,0.14255456626415253,0.44463637471199036
1788867453422593800,11.30059375,-1.6984320878982544,0.06207062676548958,0.5245342254638672
1788867453432553700,11.3105537109375,-1.694264531135559,-0.04592082276940346,0.5654864311218262
1788867453442514000,11.320513916015624,-1.7265816926956177,-0.13656696677207947,0.5849308967590332
1788867453452473900,11.330473876953125,-1.795357346534729,-0.1978396475315094,0.5619449019432068
1788867453462433800,11.340433837890625,-1.8730515241622925,-0.23476018011569977,0.5042197704315186
1788867453472393700,11.350393798828126,-1.9230228662490845,-0.26784515380859375,0.4240306317806244
1788867453482354000,11.36035400390625,-1.9554945230484009,-0.3073376715183258,0.35196930170059204
1788867453492313900,11.37031396484375,-1.9711169004440308,-0.34001997113227844,0.31238406896591187
1788867453502273800,11.380273681640626,-1.9646824598312378,-0.3463815748691559,0.3110959231853485
1788867453512235000,11.390235107421875,-1.936952829360962,-0.325371652841568,0.33778050541877747
1788867453522195000,11.40019482421875,-1.899000644683838,-0.3047327697277069,0.3704928755760193
1788867453532155000,11.41015478515625,-1.8629027605056763,-0.29348596930503845,0.3824475407600403
1788867453542114800,11.42011474609375,-1.8312044143676758,-0.29992571473121643,0.37204262614250183
1788867453552075000,11.430074951171875,-1.798309326171875,-0.3067421019077301,0.34386584162712097
1788867453562035000,11.440034912109375,-1.7722359895706177,-0.3134053945541382,0.310812771320343
1788867453571995000,11.449994873046874,-1.7590759992599487,-0.31691303849220276,0.2785067558288574
1788867453581955000,11.459955078125,-1.7583518028259277,-0.32157102227211,0.2521149814128876
1788867453591915000,11.4699150390625,-1.7473866939544678,-0.3344561755657196,0.23691979050636292
1788867453601875700,11.479875732421876,-1.7339671850204468,-0.3356771767139435,0.23699484765529633
1788867453611836000,11.4898359375,-1.7075246572494507,-0.33023369312286377,0.23389919102191925
1788867453621795800,11.4997958984375,-1.660809874534607,-0.3216680586338043,0.2246120125055313
1788867453631755800,11.509755859375,-1.5964527130126953,-0.30688780546188354,0.21014972031116486
1788867453641715700,11.5197158203125,-1.529953956604004,-0.3013603985309601,0.18429259955883026
1788867453651676000,11.529676025390625,-1.469630479812622,-0.29518505930900574,0.16378812491893768
1788867453661635800,11.5396357421875,-1.4191120862960815,-0.27523425221443176,0.1512259542942047
1788867453671595800,11.549595703125,-1.3710508346557617,-0.25943106412887573,0.14749886095523834
1788867453681555700,11.5595556640625,-1.3281913995742798,-0.24094215035438538,0.14172372221946716
1788867453691517000,11.569516845703125,-1.2850921154022217,-0.22013114392757416,0.1355462521314621
1788867453701476900,11.579476806640624,-1.233492136001587,-0.21225903928279877,0.12524175643920898
1788867453711436800,11.589436767578125,-1.165429949760437,-0.2156369984149933,0.11555983126163483
1788867453721397000,11.59939697265625,-1.0908966064453125,-0.22492802143096924,0.11474701762199402
1788867453731357000,11.60935693359375,-1.012465000152588,-0.23243200778961182,0.12234528362751007
1788867453741316900,11.61931689453125,-0.9384322762489319,-0.22462953627109528,0.13922655582427979
1788867453751276800,11.62927685546875,-0.8686612248420715,-0.2015620321035385,0.16407892107963562
1788867453761237000,11.639237060546876,-0.8001090884208679,-0.1856812834739685,0.17916861176490784
1788867453771197000,11.649197021484374,-0.7298194766044617,-0.19104382395744324,0.18358813226222992
1788867453781157600,11.65915771484375,-0.6639635562896729,-0.2154201716184616,0.18233899772167206
1788867453791117800,11.669117919921876,-0.6026493310928345,-0.24502386152744293,0.17272710800170898
1788867453801077800,11.679077880859374,-0.5513842701911926,-0.2739063799381256,0.16243292391300201
1788867453811037700,11.68903759765625,-0.5144952535629272,-0.28770020604133606,0.15635372698307037
1788867453820998000,11.698997802734375,-0.48110830783843994,-0.2867448925971985,0.15316519141197205
1788867453830957800,11.708957763671876,-0.44168126583099365,-0.2729875445365906,0.1513310670852661
1788867453840917800,11.718917724609375,-0.39760690927505493,-0.24855811893939972,0.15687575936317444
1788867453850878000,11.7288779296875,-0.3551603853702545,-0.24161313474178314,0.16406390070915222
1788867453860838000,11.738837890625,-0.3196224570274353,-0.24745900928974152,0.17931556701660156
1788867453870799000,11.748799072265625,-0.2941384017467499,-0.25963178277015686,0.2036701738834381
1788867453880759000,11.758759033203125,-0.2843266427516937,-0.2695542871952057,0.22167742252349854
1788867453890719000,11.768718994140626,-0.27955931425094604,-0.2581764757633209,0.22546550631523132
1788867453900679000,11.778678955078124,-0.26566439867019653,-0.27060529589653015,0.18846288323402405
1788867453910639000,11.78863916015625,-0.2581537365913391,-0.33326682448387146,0.09254912286996841
1788867453920599000,11.79859912109375,-0.28073474764823914,-0.42751869559288025,-0.02864055335521698
1788867453930559000,11.80855908203125,-0.3445286452770233,-0.5090905427932739,-0.13415445387363434
1788867453940519000,11.818518798828125,-0.4267560541629791,-0.5439662933349609,-0.19134339690208435
1788867453950479000,11.82847900390625,-0.502565324306488,-0.4992467164993286,-0.19335408508777618
1788867453960439000,11.83843896484375,-0.5561044216156006,-0.4103068709373474,-0.1678691804409027
1788867453970399700,11.848399658203125,-0.5756267309188843,-0.3026064932346344,-0.1374817192554474
1788867453980360000,11.85835986328125,-0.5850082635879517,-0.20658153295516968,-0.11483774334192276
1788867453990319900,11.86831982421875,-0.5504774451255798,-0.10354303568601608,-0.11087735742330551
1788867454000279800,11.87827978515625,-0.507706344127655,-0.019405990839004517,-0.11794179677963257
1788867454010240000,11.888239990234375,-0.4742753803730011,0.023925770074129105,-0.11104954034090042
1788867454020200000,11.898199951171875,-0.4400482773780823,0.05373520404100418,-0.07084643095731735
1788867454030160000,11.908159912109374,-0.39870136976242065,0.07751404494047165,0.006097880657762289
1788867454040119800,11.918119873046875,-0.34686583280563354,0.08397236466407776,0.10348691791296005
1788867454050080000,11.928080078125,-0.29511237144470215,0.060224421322345734,0.19786348938941956
1788867454060041000,11.938041015625,-0.2474099099636078,0.003468926530331373,0.27199655771255493
1788867454070001000,11.9480009765625,-0.2143438309431076,-0.08875687420368195,0.31224650144577026
1788867454079961000,11.957961181640625,-0.2030102163553238,-0.19845061004161835,0.31108829379081726
1788867454089921000,11.967921142578126,-0.20467016100883484,-0.295510858297348,0.2785194516181946
1788867454099881000,11.977880859375,-0.2083253264427185,-0.3482443690299988,0.24463807046413422
1788867454109841000,11.9878408203125,-0.2366855889558792,-0.3411089777946472,0.19739918410778046
1788867454119801000,11.997801025390626,-0.2628563642501831,-0.3266380727291107,0.14588847756385803
1788867454129761000,12.007760986328124,-0.2682037055492401,-0.31743258237838745,0.10987669229507446
1788867454139721000,12.017720947265625,-0.26739490032196045,-0.30953875184059143,0.09027665108442307
1788867454149682000,12.027681884765625,-0.27276119589805603,-0.3033309280872345,0.0842515155673027
1788867454159641900,12.037641845703124,-0.2685922086238861,-0.27519893646240234,0.08879207819700241
1788867454169601800,12.047601806640625,-0.2575747072696686,-0.23656447231769562,0.10326982289552689
1788867454179562000,12.05756201171875,-0.2504878640174866,-0.1708131730556488,0.12867873907089233
1788867454189522000,12.06752197265625,-0.24275271594524384,-0.09964659065008163,0.16183854639530182
1788867454199481900,12.07748193359375,-0.23234692215919495,-0.04744449630379677,0.17732815444469452
1788867454209441800,12.08744189453125,-0.2188076674938202,-0.026301661506295204,0.1663263738155365
1788867454219402000,12.097402099609376,-0.2106265276670456,-0.03574855253100395,0.13245180249214172
1788867454229362000,12.10736181640625,-0.2115090936422348,-0.05420771986246109,0.09406605362892151
1788867454239323000,12.117322998046875,-0.22966879606246948,-0.074891097843647,0.05715715512633324
1788867454249283000,12.127282958984376,-0.2553296685218811,-0.11436740309000015,0.020091544836759567
1788867454259243000,12.137242919921874,-0.27653899788856506,-0.14115245640277863,-0.013802262023091316
1788867454269203000,12.147202880859375,-0.3063264489173889,-0.15138618648052216,-0.055078063160181046
1788867454279163000,12.157162841796875,-0.337160587310791,-0.1609784960746765,-0.1097797304391861
1788867454289123000,12.167123046875,-0.3544498383998871,-0.15474456548690796,-0.15509234368801117
1788867454299083000,12.1770830078125,-0.361291766166687,-0.12389110028743744,-0.19478920102119446
1788867454309043000,12.18704296875,-0.3534229099750519,-0.08380546420812607,-0.2221561074256897
1788867454319003000,12.1970029296875,-0.32841208577156067,-0.040424760431051254,-0.23581819236278534
1788867454328964000,12.206964111328125,-0.30199912190437317,-0.00796695426106453,-0.24109391868114471
