time,seconds_elapsed,z,y,x
1789062373479214800,0.07521484375,0.16546821009814738,-0.19402502701878546,-0.027292012016056105
1789062373489174800,0.0851748046875,0.2643640531361103,-0.16672478603050112,0.007280987321026623
1789062373499136000,0.095135986328125,0.2647632815867662,-0.16981062321662901,0.011011707415105775
1789062373509096000,0.105095947265625,0.14115443757474422,-0.19324571320936082,-0.15360405970532445
1789062373519057000,0.115056884765625,0.03136836721003056,-0.24957258058711884,-0.2509415491190739
1789062373529017000,0.12501708984375,-0.06199672970771789,-0.38289617840573187,-0.31706611761283127
1789062373538977800,0.134977783203125,-0.05448620794713497,-0.5033132406391203,-0.37379177504982797
1789062373548937700,0.144937744140625,-0.05359948824048042,-0.5101670520566404,-0.37131552112940697
1789062373558899000,0.15489892578125,0.021366613155603408,-0.5693278276860714,-0.39280437242519106
1789062373568859000,0.16485888671875,-0.008316577446460723,-0.46116219813004133,-0.430889772930555
1789062373578820000,0.174820068359375,0.06261632291078567,-0.3716432552464306,-0.4181809153418988
1789062373588780000,0.184780029296875,0.2091816796183586,-0.3818564600944519,-0.40410898923911154
1789062373598740700,0.19474072265625,0.20912381195127963,-0.3818050221681595,-0.39816458428408946
1789062373608701000,0.204700927734375,0.0920773951947689,-0.47184141305461524,-0.35271884761117395
1789062373618662000,0.214661865234375,-0.009721183547377586,-0.40245778796598314,-0.36296051136869933
1789062373628621800,0.224621826171875,-0.009421323817968367,-0.40499066744446754,-0.36021892104297876
1789062373638583000,0.2345830078125,0.07328384739756584,-0.3263911779820919,-0.3871048090767115
1789062373648543000,0.24454296875,0.07408171977698802,-0.3326122444540262,-0.38677678269874305
1789062373658504000,0.25450390625,0.16938626032471657,-0.36540552990064024,-0.3516511087818071
1789062373668463900,0.2644638671875,0.09424071070849895,-0.3274463861234486,-0.39098745919633654
1789062373678424800,0.2744248046875,0.09085632896721363,-0.2862763174757361,-0.4308673784356564
1789062373688385000,0.284385009765625,0.1297094989746809,-0.3441261566370725,-0.40795441262088716
1789062373698346000,0.294345947265625,0.1293394966185093,-0.341234526848793,-0.4077214441152289
1789062373708306000,0.304305908203125,0.2107943755120039,-0.45475247721821066,-0.34992381006516515
1789062373718267000,0.314266845703125,0.20422084234058857,-0.3934662338674068,-0.36141529122069477
1789062373728226800,0.324226806640625,0.15435001923441885,-0.3030716771930456,-0.3827490980852395
1789062373738188000,0.33418798828125,0.14255787463188171,-0.22627456097751855,-0.35103637441694735
1789062373748148000,0.34414794921875,0.14127952525913715,-0.2172976199261844,-0.3422561249814927
1789062373758109000,0.35410888671875,0.07709142298698425,-0.04453603794947266,-0.29704131098762154
1789062373768069000,0.364069091796875,-0.021093641433119772,-0.034505642322450875,-0.28279959954218936
1789062373778029800,0.37402978515625,-0.024275778600573537,-0.18928645418956874,-0.2551066146429628
1789062373787989800,0.38398974609375,0.014651041164994239,-0.3341273251920938,-0.19046154411723837
1789062373797951000,0.393950927734375,0.012180851659178734,-0.3176137050256133,-0.1798633768059313
1789062373807911000,0.403910888671875,-0.07737374705970287,-0.2916574259921908,-0.24585524056442082
1789062373817872000,0.413871826171875,-0.1468587866961956,-0.17543898449242115,-0.27176347920503463
1789062373827832000,0.42383203125,-0.24372926138639447,-0.14336948327571153,-0.27146944642821325
1789062373837792800,0.433792724609375,-0.3183066557258367,-0.215325150809437,-0.19187389513319358
1789062373847752700,0.443752685546875,-0.3183417270392179,-0.2157017290368676,-0.18808166324337944
1789062373857714200,0.453714111328125,-0.3958855699688196,-0.12685937024056912,-0.06148081607483327
1789062373867674000,0.463674072265625,-0.3760124102413654,-0.05555003778636455,-0.02895827386099845
1789062373877635000,0.473635009765625,-0.24750585731565952,-0.033750732301920654,0.039895262938924134
1789062373887595300,0.48359521484375,-0.09310790728628635,-0.048570115771144624,0.15717271197233348
1789062373897556000,0.493555908203125,-0.09377952293753623,-0.042084991535544396,0.14528366460027173
1789062373907517200,0.50351708984375,0.24624095194637774,-0.1890694504380226,0.26499579343469815
1789062373917477000,0.51347705078125,0.40630175004303454,-0.30199776435121894,0.277223498176597
1789062373927438000,0.52343798828125,0.45361996605694294,-0.39289194111078973,0.2235321669341996
1789062373937398300,0.533398193359375,0.39298926400542256,-0.41842298046946524,0.19477343423329294
1789062373947359000,0.54335888671875,0.3919727804392576,-0.4118238744653761,0.19745870952820405
1789062373957319000,0.55331884765625,0.18948796811103819,-0.23860505024045706,0.20688147638458756
1789062373967280000,0.563280029296875,0.11335574554502964,-0.1231530630685389,0.2715669885185547
1789062373977240000,0.573239990234375,-0.014508417823910713,-0.04104702678993344,0.3406046314474195
1789062373987201000,0.583200927734375,0.05091419467926025,0.016942951494455336,0.4351032624397427
1789062373997161200,0.5931611328125,0.050340194183588025,0.022643208962678907,0.4175958819955587
1789062374007122000,0.603121826171875,0.6386112072706223,-0.29734190136939287,0.6015251200009137
1789062374017081900,0.613081787109375,0.7868190704882144,-0.5536107647247612,0.6037586512066424
1789062374027043000,0.62304296875,0.7814315322309732,-0.6741312873326242,0.5284020161230116
1789062374037003000,0.6330029296875,0.6665040073245764,-0.609955606150627,0.4737591563094407
1789062374046964200,0.642964111328125,0.6670850220829248,-0.6143345518872142,0.47996506174486125
1789062374056924200,0.652924072265625,0.1403840377241373,-0.20331074175834654,0.4422152864020317
1789062374066885000,0.662885009765625,0.13952595959007738,-0.1974384887240827,0.44074236430525776
1789062374076845000,0.672844970703125,0.038655017086863516,-0.19904504713788626,0.7509032691068946
1789062374086806000,0.682805908203125,0.31587855179607865,-0.3397128702394664,0.8588562788255513
1789062374096766000,0.692765869140625,0.3128577426701784,-0.318710852612555,0.8290177515313029
1789062374106727200,0.70272705078125,1.2304910585045814,-1.031547864305973,0.9010700113072991
1789062374116687000,0.71268701171875,1.2279016265332698,-1.0149712619058788,0.8769611137062311
1789062374126648000,0.72264794921875,1.9230168113142252,-1.5178396813869475,0.699606650981307
1789062374136608000,0.73260791015625,1.8729519269406794,-1.9476734059259295,0.674485799858719
1789062374146569000,0.74256884765625,1.874551178830862,-1.9578186601042746,0.6979298038102686
1789062374156529200,0.752529052734375,0.9997598103791475,-2.1016652593724428,0.35236360443271697
1789062374166490000,0.762489990234375,1.0035025040388106,-2.1281395709306,0.3976368340829387
1789062374176450000,0.772449951171875,-0.24351707994043825,-1.5287253786690533,0.10682345769945531
1789062374186411300,0.782411376953125,-0.8187807274162768,-1.06762280177176,0.07165871214745566
1789062374196371200,0.79237109375,-0.8127765185654163,-1.1116970674283801,0.08907505330732092
1789062374206332000,0.802331787109375,-1.210291735562682,-0.5129344709433615,0.43534576595872637
1789062374216293000,0.812293212890625,-1.20363753837049,-0.559006778549403,0.41142628998253494
1789062374226253000,0.822253173828125,-0.46018940757513044,-0.26521993931308385,0.6879135097738355
1789062374236214300,0.83221435546875,0.07625731025040149,-0.30535584260746834,0.72916606907323
1789062374246174200,0.84217431640625,0.08066285173296928,-0.33911366223730144,0.6891383753936737
1789062374256135000,0.852135009765625,0.7714023056477308,-0.7254829966463148,0.7788240531463175
1789062374266095000,0.86209521484375,0.7733423337996006,-0.741972578350082,0.7577801691390573
1789062374276056000,0.87205615234375,1.0713719251722096,-0.9949366280063986,0.6156314598299563
1789062374286016000,0.88201611328125,1.0793272680908441,-1.0996155844904483,0.4827892888527363
1789062374295977200,0.891977294921875,1.0784317805558443,-1.0919082980487496,0.4983978864708915
1789062374305937200,0.901937255859375,0.8173597547024488,-1.3735516219615935,0.27542441286537794
1789062374315898000,0.911898193359375,0.8155968366831541,-1.3599088810563087,0.305314487683773
1789062374325858000,0.921858154296875,0.24692308899164198,-1.5883924963854252,0.10600431420314126
1789062374335819000,0.931819091796875,0.06845920372009277,-1.6872198042318225,0.0635633397036232
1789062374345779200,0.941779296875,0.00963993500471115,-1.7882384846426544,0.00015831410055980086
1789062374355740200,0.951740234375,0.040460605204105375,-1.8655770142585038,-0.07795649711741134
1789062374365700000,0.9617001953125,0.09219196148514747,-1.8957859823003411,-0.08772579412283375
1789062374375661000,0.9716611328125,0.029704233390092847,-1.857747343546152,-0.08517086720932275
1789062374385621000,0.98162109375,-0.13022855441272257,-1.7331037496589123,-0.08701200156398117
1789062374395582200,0.991582275390625,-0.19536416666805742,-1.5649872170090675,-0.018047880529053508
1789062374405542100,1.001542236328125,-0.12238543969690799,-1.4528447927765546,0.10035859080059453
1789062374415503000,1.011503173828125,-0.12369535325169563,-1.4435402272060514,0.1059666582070291
1789062374425463000,1.021463134765625,0.020151392146945,-1.4362275661051271,0.22479067909531295
1789062374435424000,1.031424072265625,0.08512801444828509,-1.4773545262634753,0.2611154083373956
1789062374445384000,1.041384033203125,0.07087035651504993,-1.539928179076314,0.2835244614843279
1789062374455345200,1.05134521484375,-0.033031916508078574,-1.5484160214364528,0.2791835462031886
1789062374465305000,1.06130517578125,-0.03491407699286937,-1.5358888405576347,0.2869429281583056
1789062374475266000,1.07126611328125,-0.22335750448703764,-1.4082554172046482,0.250277897578571
1789062374485226200,1.081226318359375,-0.2912421231895685,-1.307391635094583,0.26669432271458204
1789062374495187000,1.09118701171875,-0.37056817336082454,-1.2130679222777485,0.3039487888211384
1789062374505147000,1.10114697265625,-0.4709533781737089,-1.2205115162819624,0.329427184677124
1789062374515108000,1.111108154296875,-0.515886744877696,-1.3029847784377633,0.349156113628298
1789062374525069000,1.121069091796875,-0.5512146633684635,-1.444599965392053,0.35702673740554597
1789062374535029200,1.131029296875,-0.5306020834505558,-1.521695480032265,0.34328696586657315
1789062374544990000,1.140989990234375,-0.3961860142201185,-1.4798412285126745,0.2632710337350145
1789062374554950000,1.150949951171875,-0.3001052286028862,-1.3729751372478902,0.13726060847397892
1789062374564911000,1.1609111328125,-0.3029401597678661,-1.3605154686473309,0.16588296491149812
1789062374574871000,1.17087109375,-0.6519248623520135,-0.8499578098379075,-0.24954693468920885
1789062374584832300,1.180832275390625,-1.1094202085375786,-0.5510490975432097,-0.36971747481562195
1789062374594792200,1.190792236328125,-1.5509978546231984,-0.22154095658436415,-0.40285825852565466
1789062374604753000,1.2007529296875,-1.9680238277763127,0.17068828283399343,-0.45621604696474966
1789062374614713000,1.210713134765625,-1.9675281532138584,0.15358385716751216,-0.4235035716693848
1789062374624674000,1.220674072265625,-2.3901368949353694,0.8037767811603844,-0.37007001458033917
1789062374634634000,1.230634033203125,-2.310298219066858,1.0598483683779836,-0.3596593874640763
1789062374644595200,1.24059521484375,-2.0074995135962963,1.2104779057845472,-0.333159758801572
1789062374654555100,1.25055517578125,-1.478597219800949,1.2460668132990598,-0.2865549882866442
1789062374664516000,1.26051611328125,-1.4749936423510313,1.2322082376860082,-0.3188209619235247
1789062374674476000,1.27047607421875,-0.4171300180494785,1.1576979172334074,-0.19570194725506007
1789062374684437000,1.28043701171875,0.03266425223946571,1.0153139378637075,-0.15097528210431335
1789062374694397000,1.29039697265625,0.5940916820645332,0.8728896264836191,-0.09871252236030996
1789062374704358100,1.300358154296875,1.1028250480562447,0.5635578659825027,-0.026735300581902263
1789062374714318000,1.310318115234375,1.098046581608057,0.6068688921816646,-0.05821907433252781
1789062374724279000,1.320279052734375,2.0629262172639367,0.07546805956885218,-0.05417695933487266
1789062374734239000,1.330239013671875,2.2972663035362957,-0.20526304486989974,-0.09322934170886873
1789062374744200000,1.340199951171875,2.390374210822582,-0.38332784782126544,-0.2290198410976678
1789062374754161200,1.3501611328125,2.170555401855707,-0.5093773629836738,-0.33944570720326156
1789062374764121000,1.36012109375,1.6208184098243712,-0.4933826521247625,-0.44613684375993906
1789062374774082300,1.370082275390625,0.9359522318571806,-0.23710049089640378,-0.6073987247420475
1789062374784042200,1.380042236328125,0.5176823961228132,0.11344137800186872,-0.691127795645222
1789062374794003000,1.3900029296875,0.1877671356678009,0.3925589097641408,-0.6017105595704167
1789062374803963100,1.399963134765625,-0.045350130811333655,0.649605771754682,-0.5370426744246855
1789062374813924000,1.409924072265625,-0.04312953215241432,0.6293466814495623,-0.5208496279820799
1789062374823884000,1.419884033203125,-0.05983692132532596,0.9379197325378655,-0.23467326374948022
1789062374833845200,1.42984521484375,0.007667173627018928,0.9670860596589743,-0.10608904247768222
1789062374843805200,1.43980517578125,0.18228315129876135,0.9129900200732052,-0.018080979081057012
1789062374853766000,1.449765869140625,0.5315618683934211,0.7663935375750064,0.06978409564830362
1789062374863726000,1.45972607421875,0.5340449173808097,0.7569074779577553,0.05024659761600196
1789062374873687300,1.469687255859375,1.0486755247175692,0.36423312512040135,0.09608126054126769
1789062374883647200,1.479647216796875,1.257795829537511,0.15850830795764922,0.05388747486900538
1789062374893608200,1.489608154296875,1.3747224193066359,-0.10684110295400023,0.011948211947083473
1789062374903568400,1.499568359375,1.3610019369900226,-0.3700080552600324,-0.009094612614251672
1789062374913529000,1.509529052734375,1.3597463839709758,-0.3632389995165169,-0.004243555853888392
1789062374923489000,1.519489013671875,1.3595254346966743,-0.6331890360914171,-0.08174151381514966
1789062374933450200,1.5294501953125,1.3212977031111717,-0.7666783458657562,-0.05604216868486255
1789062374943410200,1.53941015625,1.2668074035108088,-0.8488282212860881,-0.02722659123018384
1789062374953371100,1.54937109375,1.1744897698193788,-0.8111782895885408,-0.05436013388205319
1789062374963331300,1.559331298828125,1.1755746424466371,-0.8278551374927162,-0.0307064327025786
1789062374973292000,1.5692919921875,0.7851555211901664,-0.6892519918359815,-0.12970051195062696
1789062374983253200,1.579253173828125,0.5554612148970365,-0.6557093493267894,-0.13409399766921995
1789062374993213200,1.589213134765625,0.37535599215924736,-0.5755595616824924,-0.12376644572652876
1789062375003174100,1.599174072265625,0.256803847014904,-0.497336504317075,-0.0954616308055818
1789062375013134300,1.60913427734375,0.25842005003988744,-0.5163865110933781,-0.08115100057609378
1789062375023095000,1.619094970703125,0.27714579329788686,-0.3918438933625817,0.014280162025988101
1789062375033055000,1.629054931640625,0.20783318761885164,-0.42101665022447704,0.022019451041147112
1789062375043016200,1.63901611328125,0.1260878013461828,-0.44325829264894123,-0.0005714432124048471
1789062375052976000,1.64897607421875,0.16507833399772642,-0.4747838962472975,0.008171031495928764
1789062375062937300,1.658937255859375,0.2752028425365686,-0.600183276937902,0.052064241497218604
1789062375072897300,1.668897216796875,0.3987298534840345,-0.730269208009541,0.08468355861641466
1789062375082858000,1.67885791015625,0.49717327657938,-0.8869662287615239,0.05470839933045208
1789062375092818200,1.688818115234375,0.5756961936742067,-1.0680847201950847,0.010800868542864918
1789062375102779100,1.698779052734375,0.594897737750411,-1.2741750096693634,-0.0010183832623064518
1789062375112739000,1.708739013671875,0.5942296292304993,-1.268328913989663,-0.002748860316723585
1789062375122700300,1.7187001953125,0.5561830994307995,-1.5726918000370262,-0.012946940660849213
1789062375132660200,1.72866015625,0.5939490587234497,-1.6401269214063883,-0.0476693675391376
1789062375142621200,1.73862109375,0.6428969217658043,-1.714547517748922,-0.07193513620235026
1789062375152581000,1.7485810546875,0.6743710874378681,-1.8032720953844488,-0.09149769561067223
1789062375162542000,1.7585419921875,0.6744429836302995,-1.8013640698060391,-0.09613704584911464
1789062375172503300,1.76850341796875,0.6422276442021131,-1.8793543413288891,-0.08020473270192742
1789062375182463200,1.778463134765625,0.2997305500715971,-1.7898260460950433,-0.06228489899933338
1789062375192424000,1.788423828125,0.13036007183790208,-1.6268148737601935,-0.05250730908960104
1789062375202384100,1.798384033203125,-0.09433189612329006,-1.4724481956519186,-0.057602001880109305
1789062375212345000,1.808344970703125,-0.09565817629098891,-1.4725968103423714,-0.039767508373409505
1789062375222305000,1.818304931640625,-0.5363654692828655,-1.124288253454119,-0.14552432322204112
1789062375232266200,1.828266357421875,-0.806812641724944,-0.9938120078906416,-0.22702019171305
1789062375242226200,1.83822607421875,-1.0438988118350505,-0.95727032969594,-0.23353461510837076
1789062375252187100,1.848187255859375,-1.205433774137497,-0.9859295840777457,-0.22520941596403718
1789062375262147000,1.85814697265625,-1.361620361149311,-1.0612084046848118,-0.20566607271283863
1789062375272108000,1.86810791015625,-1.4914835893809795,-1.1473846130117773,-0.16564071712084114
1789062375282068200,1.878068115234375,-1.554723012626171,-1.2105303666241467,-0.2251103395037353
1789062375292029200,1.888029296875,-1.5332394950926302,-1.3071278695918618,-0.3098476741340011
1789062375301989000,1.897989013671875,-1.5338322002887725,-1.3954701699115335,-0.3310547858789563
1789062375311950000,1.9079501953125,-1.5343337200701235,-1.3873257341615854,-0.33929121076129376
1789062375321910000,1.917909912109375,-1.6927864984482526,-1.2104916420489549,-0.16921594525910913
1789062375331871200,1.927871337890625,-1.6900141111254692,-1.2202497966058552,-0.184946086897701
1789062375341831200,1.9378310546875,-1.514959157514572,-0.6046563306987285,-0.0631330402612686
1789062375351792000,1.947792236328125,-1.4545102417707443,-0.17435425799563525,-0.11075491539686917
1789062375361753300,1.95775341796875,-1.4503262340843677,-0.21629121936261653,-0.09008198359385132
1789062375371713300,1.96771337890625,-2.1321704338818788,0.9506270922891795,-0.17835326450392602
1789062375381674000,1.977674072265625,-2.130689255413413,0.9022276569098233,-0.12493943502865731
1789062375391634200,1.98763427734375,-3.2175317214399572,2.121629896775633,-0.07356945940591395
1789062375401595100,1.99759521484375,-3.285342690384388,2.504614045725763,0.05135967342443764
1789062375411555000,2.00755517578125,-2.919245524957776,2.5070927107989784,0.2687481134392321
1789062375421516300,2.017516357421875,-2.229879697483778,2.164755483405292,0.5030136001054197
1789062375431476200,2.027476318359375,-2.2298042941600085,2.2013196656927465,0.45608628310523924
1789062375441437200,2.037437255859375,-0.4520452640861273,1.3922737119577824,0.6228536661684513
1789062375451397000,2.047397216796875,0.5550643245339393,1.0683325574763118,0.497080045337975
1789062375461358000,2.057358154296875,0.5539490567684173,1.1230328465655446,0.4111841152571141
1789062375471318300,2.067318359375,2.232065224829316,0.03937880131676793,0.4376010706048459
1789062375481279200,2.077279296875,2.70895851444602,-0.2707711436994374,0.46027916821781545
1789062375491239200,2.0872392578125,3.1057547695189713,-0.47660161319375033,0.49010925647728143
1789062375501200100,2.0972001953125,3.044271834552288,-0.7604401821285486,0.5275641770593822
1789062375511160000,2.10716015625,3.0439521010786295,-0.7594619847461581,0.530893979069218
1789062375521121300,2.117121337890625,2.447673138102889,-0.8106246012285351,0.36074327371064574
1789062375531082200,2.127082275390625,2.4458961915582416,-0.81058748408854,0.3931825946204364
1789062375541042200,2.137042236328125,1.4944494534492492,-0.5317307952195406,0.15450963024292141
1789062375551003100,2.147003173828125,1.1715063700944184,-0.32021935747936364,0.12584953561089932
1789062375560963000,2.156963134765625,1.1685165406286715,-0.31560294972509145,0.16039602140039205
1789062375570924300,2.16692431640625,0.7699386628359556,0.10782470716387033,0.034632629702985286
1789062375580884200,2.17688427734375,0.7677753473222255,0.11082856515496968,0.05818674296550452
1789062375590845200,2.18684521484375,0.681518036583066,0.15194354261457918,0.08278926930241286
1789062375600805400,2.196805419921875,0.739616589808464,0.079233841843158,0.058063774172961706
1789062375610766000,2.20676611328125,0.7388321614325046,0.08217764021009206,0.06227393921390176
1789062375620726000,2.21672607421875,0.7930997581928968,0.037068770808726545,-0.025259309745207428
1789062375630687200,2.226687255859375,0.7997656458228826,-0.007451631180197,-0.09041209233105182
1789062375640647200,2.236647216796875,0.7568254987627268,-0.1293950261980295,-0.07945691000930964
1789062375650608000,2.246608154296875,0.7244102528482675,-0.33142040432095526,0.010574220180138944
1789062375660568300,2.256568359375,0.8175304350942373,-0.49920419788509607,0.13355937933586537
1789062375670529000,2.266529052734375,1.022853101196885,-0.5505561994597316,0.20728826708719134
1789062375680489000,2.276489013671875,1.0236959817618132,-0.5525570178881287,0.19971242500543593
1789062375690450200,2.2864501953125,1.191065641567111,-0.5681472395993769,0.23017047243751584
1789062375700411100,2.2964111328125,1.0537269628882409,-0.7272600893214345,0.08724478740654885
1789062375710371300,2.306371337890625,1.0523843161076307,-0.7271696345590054,0.1056351612303406
1789062375720332000,2.31633203125,0.27782909938693046,-0.741098206668347,-0.0010903525199741125
1789062375730292000,2.3262919921875,-0.03777589616477489,-0.6558535801030695,-0.017728183588013053
1789062375740253200,2.336253173828125,-0.2302998709708452,-0.5814267001502216,0.04434197668209672
1789062375750213000,2.346213134765625,-0.16656185055375097,-0.5298055262453853,0.11750402433089911
1789062375760174300,2.35617431640625,-0.020925299128890035,-0.605509440396726,0.2349139406375587
1789062375770134300,2.36613427734375,0.11296879205405712,-0.7354274675555527,0.2785105788450688
1789062375780095000,2.376094970703125,0.09565174655020237,-0.8191771793879568,0.2767651234172284
1789062375790055200,2.38605517578125,0.044704818645119666,-0.7578590795941651,0.3011846213374287
1789062375800016100,2.39601611328125,0.1116360821455717,-0.6929780266217886,0.3390121015589684
1789062375809976000,2.40597607421875,0.20001286925673484,-0.6890798501394688,0.410559188291803
1789062375819937300,2.415937255859375,0.22486089478731153,-0.7854736472286283,0.49568778726197776
1789062375829897200,2.425897216796875,0.22134324205517766,-0.7617284683734178,0.4905937520585954
1789062375839858200,2.435858154296875,0.23995675711035727,-1.0065367571681738,0.4967614809080958
1789062375849819100,2.445819091796875,0.09148995069563388,-1.1428761956766247,0.42848340590856965
1789062375859778600,2.455778564453125,-0.1748392650336027,-1.2015035950817168,0.3610349136009812
1789062375869739800,2.46573974609375,-0.4779314004927873,-1.197911123547703,0.2549129917670041
1789062375879699700,2.47569970703125,-0.8845587292283773,-1.0773610825844109,0.16122925735414026
1789062375889660700,2.48566064453125,-1.1836731932282447,-0.8745166431635618,0.09492518584132194
1789062375899620900,2.495620849609375,-1.3424527193427085,-0.6459082324109972,0.03703084995113313
1789062375909581600,2.50558154296875,-1.4565350255966185,-0.5114307883821427,0.05930727142803371
1789062375919541500,2.51554150390625,-1.5118495010614394,-0.46444136593118307,0.15285313174016774
1789062375929502700,2.525502685546875,-1.5158733497500418,-0.4386693574234843,0.14229710480384528
1789062375939462700,2.535462646484375,-1.3025170147955416,-0.8854979097746312,0.2716260800283402
1789062375949423600,2.545423583984375,-1.3045482283622025,-0.8695211729638278,0.25815489629767835
1789062375959383800,2.5553837890625,-1.3148282148361206,-1.3956173232972622,-0.22487945335730908
1789062375969344500,2.565344482421875,-1.552358037060499,-1.3756382189773022,-0.39278723862729964
1789062375979304400,2.575304443359375,-1.79171098305881,-1.0211008507020771,-0.5686776932142674
1789062375989265700,2.585265625,-2.1683394793719053,-0.2809847869388759,-0.7830603024765849
1789062375999226600,2.5952265625,-2.5282944887816905,0.6357881126739084,-0.8909919771462679
1789062376009186800,2.605186767578125,-2.7944927716076373,1.4938170007646083,-0.8001716693405061
1789062376019147500,2.6151474609375,-2.897277438777685,2.205675522814691,-0.6489277994278818
1789062376029107500,2.625107421875,-2.8921903447717425,2.179076561963558,-0.6535132275220006
1789062376039068700,2.635068603515625,-2.080067321678996,2.70757787374258,-0.07237798459902406
1789062376049028600,2.645028564453125,-1.1843243506133556,2.5797446900337935,0.12483590158894657
1789062376058989800,2.65498974609375,-0.19354162741601466,2.0661745515353975,0.3214538677103817
1789062376068949800,2.66494970703125,0.7836299190580844,1.5547994388632476,0.3653343643605709
1789062376078910500,2.674910400390625,0.7846984250724315,1.5750364634670315,0.2931727989912033
1789062376088870700,2.68487060546875,2.009270030400157,0.6414739032253622,0.31324425776973364
1789062376098831600,2.69483154296875,2.2555296870470047,0.3720357616953552,0.27692919140513983
1789062376108791600,2.70479150390625,2.283492629727721,0.28526261038854717,0.21400274309925735
1789062376118752800,2.714752685546875,1.8634867639809847,0.34081557078436014,0.11711893400344997
1789062376128712700,2.724712646484375,1.2321183674454688,0.5475146398067474,-0.07359941615276039
1789062376138673700,2.734673583984375,0.7499421689897775,0.7310922148302197,-0.16677370320614426
1789062376148634600,2.744634521484375,0.4812959084898233,0.7551917600810527,-0.1523553748184815
1789062376158594600,2.754594482421875,0.31654549127221104,0.7250720777578652,-0.1657301124373451
1789062376168555800,2.7645556640625,0.2237473805874586,0.6366891531668603,-0.15663531716000287
1789062376178515700,2.774515625,0.2207762558221817,0.6561459871783852,-0.1685568968284875
1789062376188476700,2.7844765625,0.6984837844312191,0.5370340161941946,0.009236541835591196
1789062376198436900,2.794436767578125,1.103602462169528,0.44363311731070276,0.14066745777539907
1789062376208397600,2.8043974609375,1.406516902974248,0.3509060260355472,0.2892457252079621
1789062376218357500,2.814357421875,1.7069383579194544,0.26353710079267617,0.3801142560696229
1789062376228318700,2.824318603515625,1.702707588481903,0.2915291234374046,0.34777547292485833
1789062376238278700,2.834278564453125,2.1433985148608685,0.17688187677711248,0.4458025337716564
1789062376248239900,2.844239990234375,2.1774030757933853,0.14477978846505282,0.3496109447237104
1789062376258199800,2.85419970703125,2.0825871955454347,0.027623043201863765,0.2743579526776448
1789062376268160500,2.864160400390625,1.8876438846379517,-0.14495397598817944,0.16670659278668462
1789062376278120700,2.87412060546875,1.6497908218085764,-0.3456305698506534,0.04799136603511869
1789062376288081700,2.88408154296875,1.3931161541312933,-0.48303310754597184,-0.02518770581372082
1789062376298043000,2.89404296875,1.1884604275047779,-0.5792061014913022,-0.09132233904376626
1789062376308002800,2.9040029296875,1.0733902792572974,-0.5779882501341402,-0.127082876798138
1789062376317963500,2.913963623046875,0.9847451965987681,-0.5410040888689458,-0.18254512670319525
1789062376327923700,2.923923828125,0.827156341573596,-0.49841655463874335,-0.2648718930603936
1789062376337884700,2.933884765625,0.5733113443642854,-0.4255950640559196,-0.3265001547819003
1789062376347844600,2.9438447265625,0.37705285920500753,-0.2629084475003183,-0.36957773755136875
1789062376357805800,2.953805908203125,0.20633038184046745,-0.146322780123353,-0.3323575390405953
1789062376367765800,2.963765869140625,0.011267828467488288,-0.09676935240328312,-0.3016114684473723
1789062376377726500,2.9737265625,0.011850596791505814,-0.09672054482549429,-0.3167368125932291
1789062376387686700,2.983686767578125,-0.09532616785764694,-0.23302841915190217,-0.257258897306025
1789062376397647600,2.993647705078125,0.2767372124969959,-0.49062473171874876,-0.15553312807176262
1789062376407607600,3.003607666015625,0.75254855209589,-0.8352277120873332,-0.01267398720467463
1789062376417568800,3.01356884765625,0.7510580212771892,-0.8230117891147732,-0.05882971704415977
1789062376427528700,3.02352880859375,1.0884218441724776,-1.0695262973055242,0.0033991591853089627
1789062376437489700,3.03348974609375,1.5342887118846178,-1.3501798064634203,0.09198165233586915
1789062376447450600,3.04345068359375,1.5235434459865091,-1.4611916192308068,0.08465020433608442
1789062376457410600,3.05341064453125,1.3322083887040614,-1.5191760445572435,0.0015495309969410299
1789062376467371800,3.063371826171875,1.023697735327482,-1.5118853030271828,-0.1682089053747244
1789062376477331700,3.073331787109375,0.6889864727675914,-1.4968370792381465,-0.35527686153091487
1789062376487292700,3.083292724609375,0.35323242315649983,-1.4695681101709603,-0.5595676638351753
1789062376497252600,3.093252685546875,-0.04303834673762321,-1.4238731114447116,-0.7884815238077193
1789062376507213600,3.103213623046875,-0.5147124404013157,-1.2360695892892777,-1.040328990524262
1789062376517173800,3.113173828125,-0.8789087406426668,-0.9213516057051717,-1.175107098000124
1789062376527134700,3.123134765625,-0.8819143521994351,-0.9150893304400145,-1.130081230707094
1789062376537094700,3.1330947265625,-1.770187133514881,-0.4960242526747286,-0.9197413940295577
1789062376547055600,3.1430556640625,-2.17526781733036,-0.28062603662908076,-0.7286464291132986
1789062376557015600,3.153015625,-2.491675945958495,-0.1391810916751623,-0.46915834798309947
1789062376566976500,3.1629765625,-2.453674424344301,-0.024319033220410347,-0.08982282120101154
1789062376576937700,3.172937744140625,-2.458382163643837,0.005899287171661854,-0.14990633769854902
1789062376586897700,3.182897705078125,-1.16490127274096,-0.05001534614339471,0.7394060157977044
1789062376596858600,3.192858642578125,-0.5352145456820726,0.07344722126573323,0.8112049583997577
1789062376606818600,3.202818603515625,-0.16704349659085274,0.16545710418224333,0.8299331858757882
1789062376616779500,3.212779541015625,0.11417992140948771,0.1568587871849537,0.9849833162035793
1789062376626739700,3.22273974609375,0.11733809317946434,0.14298472174182533,0.9174245684545487
1789062376636700700,3.23270068359375,0.857110165810585,0.3238705734632909,0.6773357824623585
1789062376646660600,3.24266064453125,0.6869429842412471,0.4843379065342247,0.12311332471319474
1789062376656621600,3.25262158203125,-0.10952011290490626,0.48089317290782924,-0.44451048466712234
1789062376666581500,3.26258154296875,-1.0732809736639262,0.3571794072166085,-0.7724899547539651
1789062376676542700,3.272542724609375,-1.9787112260073423,0.24786110049411653,-0.7090045208584517
1789062376686502700,3.282502685546875,-2.783556367051601,0.39525077919661994,-0.5359002994565293
1789062376696463600,3.292463623046875,-2.771667191815376,0.3277919846907258,-0.4866743135925382
1789062376706423800,3.302423828125,-3.3429736260980367,1.272388272383064,0.022922975752130148
1789062376716384800,3.312384765625,-2.7598458211183545,1.765817540128529,0.3240877233453095
1789062376726345700,3.322345703125,-2.7544278877228496,1.740480123645812,0.2719443887298926
1789062376736305700,3.3323056640625,-0.662765405318141,1.5808055483877659,0.8152822177760303
1789062376746266600,3.3422666015625,0.25677929709553715,1.2317847515769302,0.8954522444907576
1789062376756226800,3.352226806640625,0.8793366106659174,0.7785917787604033,0.8306441836893558
1789062376766187800,3.362187744140625,0.9288596432477235,0.3021665450468659,0.5357492005480453
1789062376776147700,3.372147705078125,0.9344564403414726,0.2675038124665618,0.558135183346644
1789062376786108700,3.382108642578125,0.051638417300581926,-0.23323475537896154,-0.18038802173454313
1789062376796068600,3.392068603515625,0.05416705899536609,-0.2514969727784395,-0.13763279365408235
1789062376806029600,3.402029541015625,-0.475143815600872,-0.19730229512378572,-0.6026950770957396
1789062376815989800,3.41198974609375,-0.5253595066219567,-0.2204630982197821,-0.6133904029048979
1789062376825950700,3.42195068359375,-0.5290384873956442,-0.19835034287199377,-0.6005748335387557
1789062376835910700,3.43191064453125,0.23790800788700578,-0.21535963760092852,-0.3729378981668502
1789062376845871600,3.44187158203125,0.23186638963520526,-0.1765269258596003,-0.390030048873648
1789062376855832600,3.45183251953125,1.4003110340714453,-0.39961569640785455,-0.003919045740412548
1789062376865793000,3.46179296875,1.8693138626992702,-0.5248289068765938,0.044505898539535696
1789062376875754200,3.471754150390625,1.8636434158474207,-0.49135436116755005,0.02529479205054231
1789062376885714200,3.481714111328125,2.418150106498599,-0.8706848099157214,0.1845078416109085
1789062376895675100,3.491675048828125,2.4146821381270884,-0.8515307582430541,0.18512274037254972
1789062376905635000,3.501635009765625,2.2774586102604863,-0.9191491272248328,0.17586221487317233
1789062376915596000,3.511595947265625,1.8786293880552052,-0.8296094338141381,0.13697083174716682
1789062376925556200,3.52155615234375,1.5139128633320331,-0.6412878791339696,0.08410050716460682
1789062376935517200,3.53151708984375,1.1819722345292567,-0.5234441745199263,0.030306373134860766
1789062376945477000,3.54147705078125,1.1814648695290089,-0.5220347461134195,0.045384215744026006
1789062376955438000,3.55143798828125,0.9270020326822995,-0.6271408419683575,0.1653703757468611
1789062376965398000,3.56139794921875,0.8276508470922708,-0.5819499933719635,0.24896392890317365
1789062376975359000,3.57135888671875,0.8297796758145093,-0.5956145077176391,0.2671800238722935
1789062376985320200,3.5813203125,0.1292646778166294,-0.1365117263354361,0.15850359524991361
1789062376995280100,3.591280029296875,0.13190204058289526,-0.1542598567329347,0.18069537065066396
1789062377005241000,3.601240966796875,-0.5619821410983801,0.1850147682197392,0.295343969017826
1789062377015201000,3.611200927734375,-0.6876712985157967,0.45612055070102214,0.2909389389919117
1789062377025162000,3.621161865234375,-0.6870575505316258,0.453642177888751,0.28468440864179284
1789062377035122200,3.6311220703125,-0.524575662767887,0.4664912841983139,0.6424985700979828
1789062377045083100,3.641083251953125,-0.525687423402071,0.4769849134229123,0.6115564654760063
1789062377055043000,3.65104296875,0.37751813862919803,0.204407450953871,0.7080923013843595
1789062377065004000,3.661004150390625,0.6778022309303283,0.025506635569781062,0.6765491621293127
1789062377074964000,3.6709638671875,0.8669581906080246,-0.18210779473185537,0.6554281212326138
1789062377084925200,3.68092529296875,0.8029097890675068,-0.40249169023558495,0.6016320144414902
1789062377094885000,3.690885009765625,0.7990098590195178,-0.38168548744171854,0.6046513622626661
1789062377104846000,3.70084619140625,0.22652327504158018,-0.6184650758206844,0.31597225796151907
1789062377114807000,3.71080712890625,0.02289747598469257,-0.5853372977226973,0.1725128679126501
1789062377124767000,3.72076708984375,-0.15531857200562954,-0.5561047734975815,0.08288261014167218
1789062377134728200,3.730728271484375,-0.37627135343849655,-0.47604266413673757,0.03633994507752359
1789062377144688000,3.740688232421875,-0.3793114517867565,-0.46096857525408264,0.041041674761381
1789062377154649000,3.750649169921875,-0.6568529664039612,-0.22936507433876394,-0.06756685799024999
1789062377164609300,3.760609375,-0.7304699912786483,-0.24033991120904682,-0.04900026908302679
1789062377174570000,3.770570068359375,-0.6211129599809646,-0.3408500575758517,0.013167460676888003
1789062377184530000,3.780530029296875,-0.3627414252579212,-0.5464378043554723,0.13915722674238495
1789062377194491100,3.7904912109375,-0.36880700890719886,-0.5157686714559793,0.11313809333951212
1789062377204451000,3.800451171875,0.27863573959469795,-1.2993925991646944,0.4016740537097677
1789062377214412000,3.810412109375,0.4250461980015039,-1.4710986807391047,0.2766498447407968
1789062377224372200,3.820372314453125,0.4471522313475609,-1.5278965266294777,0.006082374953874386
1789062377234333000,3.8303330078125,0.22663608776628968,-1.570088924062252,-0.17991843146141617
1789062377244294100,3.840294189453125,0.22397183699309825,-1.5587680502332746,-0.162273724905774
1789062377254254000,3.850254150390625,-0.4698270044922828,-1.3636948293358087,-0.5652596283990889
1789062377264215000,3.860215087890625,-0.6044944181352854,-0.9281097016632557,-0.8339642680227756
1789062377274175200,3.87017529296875,-0.9974024335980415,-0.44071649921163913,-0.9621657005220651
1789062377284136000,3.880135986328125,-1.496355579331517,0.13638181634545327,-0.8810936834663152
1789062377294096000,3.890095947265625,-1.483830444279313,0.06927943406179547,-0.8279012416567653
1789062377304057000,3.90005712890625,-2.92559810885489,1.6233166563808916,-0.6488920705273747
1789062377314017000,3.91001708984375,-3.380021207988262,2.4208801159843802,-0.4858957669680938
1789062377323978200,3.919978271484375,-3.283171191564202,3.011263298919797,-0.2763665160210803
1789062377333938200,3.929938232421875,-2.6402643329262734,3.2162022264018653,0.03425203288756311
1789062377343899100,3.939899169921875,-2.6351743163108825,3.19830825779289,-0.0371798665003851
1789062377353859000,3.949859130859375,-0.6182236682802439,2.593038471370935,0.5391417655957862
1789062377363820000,3.959820068359375,0.2164186451345682,2.110073460625112,0.6160338300857693
1789062377373781000,3.969781005859375,0.9169201991289854,1.665663952114433,0.5164774407798424
1789062377383741200,3.9797412109375,1.3715882129341364,1.2225669875070453,0.3448713489811867
1789062377393702100,3.9897021484375,1.6393173585891723,0.7945940884038806,0.1810196341689676
1789062377403662000,3.999662109375,1.6277712977021932,0.420314493304491,0.1107531892306637
1789062377413623000,4.009623046875,1.4120055635184048,0.18125000885874032,0.05279634146431926
1789062377423583000,4.0195830078125,1.1336708526968955,0.1076503735102713,-0.05281363052583765
1789062377433544200,4.029544189453125,0.9976146150439977,0.11121990256011485,-0.12536166989556513
1789062377443504000,4.039504150390625,0.9927648369252681,0.13755290595144032,-0.11358057641000487
1789062377453465000,4.049465087890625,1.1366963379979134,-0.16425898043885825,0.0011944368030672194
1789062377463425300,4.05942529296875,1.34866034181118,-0.22409356367662547,0.07531775524481199
1789062377473386000,4.069385986328125,1.6424322757393122,-0.20377178339883684,0.0925908063433133
1789062377483346000,4.079345947265625,1.8811258810460567,-0.2327012330241501,0.11263238144023344
1789062377493307100,4.08930712890625,1.88067229205966,-0.23077800987660885,0.09485597479632124
1789062377503268000,4.09926806640625,2.1873896322786806,-0.5248885281093418,0.21378966660415752
1789062377513228300,4.109228271484375,2.141224093431234,-0.6309449104264379,0.2126266324404627
1789062377523189000,4.11918896484375,2.0087129810392854,-0.621876930090785,0.1783630917781964
1789062377533149000,4.12914892578125,1.7555179721713066,-0.5222885747440159,0.08617044530645944
1789062377543110100,4.139110107421875,1.7583669318616388,-0.5370446837186813,0.09524744006562977
1789062377553070000,4.149070068359375,1.314122112393379,-0.2567741825290024,-0.09806837923787534
1789062377563031300,4.15903125,0.9819985282391309,-0.28954949392750856,-0.16357446877341716
1789062377572991200,4.1689912109375,0.6105728612661361,-0.366158540225029,-0.22018744134986773
1789062377582952000,4.178951904296875,0.3812830441206693,-0.5347706013068556,-0.22522749960999935
1789062377592912100,4.188912109375,0.38085400505363937,-0.5324938885465264,-0.22921258719079196
1789062377602873000,4.198873046875,0.42944180261194703,-0.7729772998794913,-0.14799982822379096
1789062377612833000,4.2088330078125,0.6088081896811723,-0.7755689238078892,-0.1557028403491713
1789062377622794200,4.218794189453125,0.731341513416171,-0.741964614239335,-0.10359682380314916
1789062377632755000,4.2287548828125,0.7527391062319279,-0.7054132914334535,-0.06008249358423054
1789062377642715000,4.23871484375,0.7538520359098911,-0.7123274547360837,-0.0759997735590674
1789062377652676000,4.248676025390625,0.5252735819041728,-0.6297735285595059,0.01873728756532073
1789062377662636000,4.258635986328125,0.4434995540589094,-0.6220438110902905,0.12494456786150113
1789062377672597200,4.26859716796875,0.4948462949365377,-0.6026406069621444,0.20698009618716312
1789062377682557200,4.27855712890625,0.5695663126170635,-0.6472182920962571,0.24591343702506271
1789062377692518000,4.288517822265625,0.5673159033417702,-0.6369726462833583,0.22812532167704774
1789062377702478000,4.29847802734375,0.5872054296821355,-0.9192552179478108,0.27859549891585483
1789062377712439000,4.30843896484375,0.47170799593329427,-1.0132526214197277,0.21858893837835638
1789062377722399000,4.31839892578125,0.24151216985881327,-1.0467476253949106,0.11975357508966698
1789062377732360200,4.328360107421875,-0.10389058258533478,-0.990604590151459,0.013799849429447203
1789062377742320000,4.338320068359375,-0.10663374381363391,-0.9749119309790432,0.02656034587379545
1789062377752281000,4.348281005859375,-0.4315986883848905,-0.8714660234212875,-0.09882977379811927
1789062377762242000,4.358241943359375,-0.9482979186892508,-0.7385260180927813,-0.3241616288317367
1789062377772202000,4.368201904296875,-1.238078737154603,-0.5735483679905533,-0.43883711520582436
1789062377782163200,4.3781630859375,-1.5244582227438688,-0.44215091592893,-0.5057355724152177
1789062377792123100,4.388123046875,-1.5272083982348441,-0.4273224723704159,-0.4872382310856133
1789062377802084000,4.398083984375,-2.348148934033513,-0.223832428522408,-0.38168501251768316
1789062377812044000,4.4080439453125,-2.581009595403075,-0.1460506851837039,-0.2369508167600259
1789062377822005000,4.4180048828125,-2.118861454975605,-0.29824776416793464,-0.05066264933729544
1789062377831965000,4.42796484375,-1.2108821026712655,-0.7438483821593225,0.16617911658016965
1789062377841926100,4.437926025390625,-0.6362111603915691,-1.0996022866174577,0.3430686104081571
1789062377851886000,4.447885986328125,-0.3117237702041864,-1.394645555655658,0.4531450785541907
1789062377861847000,4.457846923828125,-0.07606500254869461,-1.5519026945084333,0.5323248886551708
1789062377871807000,4.467806884765625,0.12577099048197268,-1.505984992942214,0.2195977866273373
1789062377881768200,4.477768310546875,0.1703162346512079,-1.2204415197856724,-0.3933264966031536
1789062377891729200,4.487729248046875,-0.36034956168532367,-0.7720633999049663,-0.714358814433217
1789062377901689000,4.497689208984375,-1.5180413414388894,-0.0676411653354764,-0.7424985749855637
1789062377911650300,4.507650390625,-2.61468214790225,0.7049767997123301,-0.4726742471495643
1789062377921610200,4.5176103515625,-3.608499708750844,1.5194889098986983,-0.08644254937926307
1789062377931571200,4.5275712890625,-4.055069756296277,2.3317053103633225,0.026101824983954428
1789062377941531100,4.53753125,-4.046880604621768,2.289725678898394,0.005763687226409092
1789062377951492000,4.5474921875,-2.2789637541264294,2.942619970804453,0.49294681799076495
1789062377961452300,4.557452392578125,-0.7469394800424576,2.3351827772155405,0.7694151504185051
1789062377971413200,4.567413330078125,0.34965514919161794,1.680705161640793,0.8490048930272459
1789062377981373200,4.577373291015625,1.0968874747008084,1.1335682691052555,0.728439289168641
1789062377991334100,4.587334228515625,1.4635212312221526,0.7057035065516829,0.5647354218618944
1789062378001294000,4.597294189453125,1.4957698883980513,0.4376784466899931,0.3816155640106648
1789062378011255300,4.60725537109375,1.5016776511371135,0.4148001137971878,0.41813619941733776
1789062378021216300,4.61721630859375,0.5159621482014656,0.7401414904654026,-0.11468706721402704
1789062378031176200,4.62717626953125,0.1895084263771772,1.093148872694373,-0.30895525533892215
1789062378041137200,4.63713720703125,0.030879706910252568,1.2498531999699771,-0.2963519587502815
1789062378051097000,4.64709716796875,-0.013206687575578689,1.3120865149125456,-0.2675809328233823
1789062378061058000,4.65705810546875,-0.014517185652256012,1.3213992637895047,-0.2462718585412949
1789062378071018200,4.667018310546875,0.5165419939160346,1.085310434153676,-0.20079424715908242
1789062378080979200,4.676979248046875,1.0860796649605036,0.8559656719505786,-0.17659847499215975
1789062378090939100,4.686939208984375,1.0825023909956215,0.8727733066275716,-0.19707482477715238
1789062378100900000,4.696900146484375,2.1165584387302396,0.3394999581411481,-0.18288825931875033
1789062378110860000,4.706860107421875,2.4478671993702648,-0.11995426702722907,0.02108215192472562
1789062378120821200,4.7168212890625,2.639979670765996,-0.355595060634613,0.03854673440679907
1789062378130782200,4.7267822265625,2.5851123545467853,-0.40999198286309835,-0.02985869329944253
1789062378140742100,4.7367421875,2.586603469887376,-0.4148332854144275,-0.0064312020912766455
1789062378150703000,4.746703125,2.1168384247153997,-0.4250216480821371,-0.22384229232929645
1789062378160663000,4.7566630859375,2.118855025234818,-0.43159547351449723,-0.17710257032308727
1789062378170624300,4.766624267578125,1.161016540262103,-0.2712602423906326,-0.3266214430740103
1789062378180584200,4.776584228515625,0.7606716527968644,-0.2361304768204689,-0.2961661903872154
1789062378190545200,4.786545166015625,0.7602128031134605,-0.2332937920898199,-0.2616085621492006
1789062378200505300,4.79650537109375,0.44204818620681763,-0.24476240382641554,-0.1949275836153887
1789062378210466000,4.806466064453125,0.44236382802724833,-0.24667042940482495,-0.17751495051626115
1789062378220426000,4.816426025390625,0.45265842754840846,-0.1232064006909728,0.07889719376731663
1789062378230387200,4.82638720703125,0.2448316696703434,0.07536459919437766,0.07741190537931397
1789062378240347100,4.83634716796875,0.24724574507474897,0.06217588566690683,0.086591894722078
1789062378250308400,4.846308349609375,0.10115385109782218,0.3653993924207985,0.12226437060050666
1789062378260269000,4.85626904296875,0.10242810881733894,0.3588461713850498,0.11494626613948493
1789062378270229000,4.86622900390625,0.17474457248747347,0.32711540060341354,0.09756114210179075
1789062378280190200,4.876190185546875,0.561266101783514,-0.20005831583365796,0.28377757772887124
1789062378290150100,4.886150146484375,0.5603589238107204,-0.19489070393741129,0.26485700601851564
1789062378300111000,4.896111083984375,0.7626309701710939,-0.6652728580944239,0.19799869815642013
1789062378310071300,4.9060712890625,0.8940759146362542,-0.7578025271013379,0.16113971590716392
1789062378320032000,4.916031982421875,0.93910514293015,-0.7758661531887948,0.13275188974472693
1789062378329992000,4.925991943359375,0.8886001135736703,-0.7213277766630053,0.11792479789308272
1789062378339953200,4.935953125,0.7338081957906484,-0.6757797851920128,0.10014233596771954
1789062378349913000,4.9459130859375,0.4727800090789795,-0.661698360608518,0.08348728890339843
1789062378359874300,4.955874267578125,0.472697006970644,-0.6611950872614979,0.09614726584902963
1789062378369835300,4.965835205078125,-0.1800806728184223,-0.7336427760958671,-0.060920734506659205
1789062378379795200,4.975795166015625,-0.45988428714871404,-0.720225952900946,-0.1573022018372081
1789062378389756200,4.985756103515625,-0.7091875492751598,-0.6556853839293122,-0.2448546852197498
1789062378399716000,4.995716064453125,-0.9108288965165614,-0.5889535885237157,-0.27670773067418486
1789062378409677300,5.00567724609375,-0.9115548727035522,-0.5853028109312057,-0.27023919224720444
1789062378419637200,5.01563720703125,-1.000096494987607,-0.408015714354068,-0.31604791701361534
1789062378429598200,5.02559814453125,-0.8745020301163196,-0.32956922349631784,-0.33793427972700446
1789062378439558100,5.03555810546875,-0.8000304342389106,-0.29837708963602777,-0.3617122648732736
1789062378449519000,5.04551904296875,-0.8056248932451009,-0.2602569100782275,-0.4740893015792593
1789062378459479000,5.05547900390625,-0.8072767521053552,-0.25162220659330486,-0.4750726500608027
1789062378469440300,5.065440185546875,-0.9460825807273388,0.0011230126805603503,-0.8543900931969285
1789062378479401200,5.075401123046875,-0.953144774198532,0.03566489536017179,-0.9855821588795631
1789062378489361200,5.085361083984375,-0.8287567625075578,-0.03984481139332056,-1.0264007106758652
1789062378499322000,5.095322021484375,-0.5488923579007386,-0.3047625528894365,-0.943505204520002
1789062378509282000,5.105281982421875,-0.32489947811961173,-0.721316232355684,-0.8895431665774435
1789062378519243300,5.1152431640625,0.012890461233258247,-0.9684703536242246,-1.068254962195456
1789062378529203200,5.125203125,-0.0013297872990369797,-0.9051068656079471,-1.081289873400703
1789062378539164200,5.1351640625,0.35665772143006325,-1.4792138903945684,-1.9265406015262008
1789062378549124400,5.145124267578125,0.07016834572553635,-1.6397174638226628,-2.3355862434498964
1789062378559085000,5.1550849609375,0.06962766297757625,-1.6378632142581044,-2.2794680503867566
1789062378569045000,5.165044921875,-1.3510118733733891,-0.9022875704035163,-2.6528341839030385
1789062378579006200,5.175006103515625,-2.5068296759486195,0.37749841101542114,-2.877370376780629
1789062378588966100,5.184966064453125,-3.6327526909977195,1.3856130850248038,-2.664551217442751
1789062378598927400,5.19492724609375,-4.467131969562173,2.3028096168771386,-2.311433506707102
1789062378608888000,5.20488818359375,-4.443651725253463,2.1873060456484557,-2.335501487775892
1789062378618848000,5.214847900390625,-4.056118388566374,3.9180519801348446,-1.3730720217511057
1789062378628809200,5.224809326171875,-2.8012077590763567,4.067552805772423,-0.969614847484231
1789062378638769200,5.23476904296875,-1.3769178835242986,3.9162469765394925,-0.762171462900564
1789062378648730400,5.24473046875,-0.09111644120812415,3.5282676496505734,-0.6015452860061079
1789062378658690300,5.254690185546875,1.0937135208398103,3.093513712105155,-0.5251762955421582
1789062378668651000,5.264651123046875,1.9415952550560234,2.6661189051508902,-0.45045401283930986
1789062378678611200,5.274611083984375,1.8810329420655965,2.34743610958904,-0.5667873859556392
1789062378688572200,5.284572265625,1.3528688994169233,2.2407272547125814,-0.9796618289198726
1789062378698532000,5.294531982421875,0.42108255506753917,2.198508699925244,-1.4891180292934179
1789062378708493300,5.304493408203125,0.4237316082715988,2.2012053916633127,-1.4212714045137167
1789062378718454000,5.3144541015625,-0.9332429728984832,1.66994031425938,-2.019436035105586
1789062378728414000,5.3244140625,-1.0371382316589355,1.4493855922333896,-2.148713718534261
1789062378738375200,5.334375244140625,-0.8845949695855378,1.2704046973504126,-2.212153778918087
1789062378748335000,5.344335205078125,-0.5199392351388931,1.1140646733425557,-2.157950187304616
1789062378758296300,5.35429638671875,-0.5277092846184969,1.1703307504437863,-2.167144132107496
1789062378768256300,5.36425634765625,0.7912012310951948,0.861659938069433,-1.8503478809446094
1789062378778217000,5.374217041015625,1.4828069464504718,0.7570055315047503,-1.660409246456623
1789062378788177200,5.38417724609375,1.9580255808532236,0.7159227027490734,-1.57349639441818
1789062378798138000,5.39413818359375,2.2894202662110326,0.7210242636717855,-1.6053385166198015
1789062378808098000,5.40409814453125,2.287245260259509,0.7319011931255459,-1.6191016690343618
1789062378818059300,5.414059326171875,2.3662796340078116,0.5330694964773952,-1.56949139656052
1789062378828020000,5.42402001953125,2.026920253381133,0.3903862419001758,-1.5867217866942285
1789062378837980200,5.433980224609375,1.4748159476965665,0.3744879771530628,-1.6609081358894704
1789062378847941000,5.443941162109375,1.0225094023257493,0.5093143807500601,-1.8141728441052138
1789062378857901000,5.453901123046875,0.7714438067018985,0.6039692252174019,-1.877038173341006
1789062378867861800,5.46386181640625,0.3090349695116281,0.6867531607575714,-1.9331635267972944
1789062378877821700,5.47382177734375,-0.07495908713340758,0.7890045978337525,-1.989534233316779
1789062378887782700,5.48378271484375,-0.3509299914330244,0.837466138663888,-1.9568259958051144
1789062378897742800,5.493742919921875,-0.518275685840845,0.8717080154836178,-1.8820429958909748
1789062378907703600,5.50370361328125,-0.5180278485596179,0.870918618671596,-1.8667007575914263
1789062378917663500,5.51366357421875,-0.5781359880417585,0.9391121571928263,-1.6937493521310387
1789062378927624700,5.523624755859375,-0.48206981547176836,0.971053501985222,-1.5744709385387599
1789062378937584600,5.533584716796875,-0.2923661587834358,1.026882648973912,-1.443300280970335
1789062378947545900,5.5435458984375,-0.1691483599156141,0.9975476872876285,-1.3419380478188394
1789062378957506600,5.553506591796875,-0.15287702407240866,0.901268894880265,-1.2483702679358422
1789062378967466500,5.563466552734375,-0.14261281968951225,0.7862329411633312,-1.2088033967010676
1789062378977427700,5.573427734375,-0.013217208969593048,0.6362200743503869,-1.1344031855594365
1789062378987387600,5.5833876953125,0.23061025209426878,0.4825543841183185,-1.0450073575988412
1789062378997348600,5.5933486328125,0.4264367755770683,0.3248351807117462,-0.9620033495672047
1789062379007308800,5.603308837890625,0.5711988822549581,0.18977204574942588,-0.8637170167297125
1789062379017269500,5.61326953125,0.7348346162289381,0.12812822113260627,-0.8209994263790548
1789062379027229400,5.6232294921875,0.7991542359262704,0.039149376475065945,-0.7789021598838269
1789062379037190700,5.633190673828125,0.7796364655077457,-0.012647300127148627,-0.6958388228803872
1789062379047150600,5.643150634765625,0.7259867083847522,0.0728866647735238,-0.6834675632156432
1789062379057111800,5.65311181640625,0.7227969724327326,0.09519128943160175,-0.669934274034202
1789062379067072500,5.663072509765625,0.4665361462533474,0.2201227603495121,-0.8190955655191093
1789062379077032400,5.673032470703125,0.3549947566539049,0.18303017027378082,-0.8492610597454011
1789062379086993700,5.68299365234375,0.2874567594319582,0.09255918736234307,-0.9021006695292889
1789062379096953600,5.69295361328125,0.2055132202386856,0.025509265918284653,-0.9210204740546644
1789062379106914800,5.702914794921875,0.20521979025006293,0.028331629862636327,-0.9101626876927912
1789062379116874800,5.712874755859375,0.09783844293951988,0.11186521472632885,-0.9697949532914906
1789062379126835700,5.722835693359375,-0.0024298574954271317,0.19777751142010092,-0.9247946588311344
1789062379136795600,5.732795654296875,-0.14316986905038356,0.2506697281740606,-0.8544635237593203
1789062379146756600,5.742756591796875,-0.2287526415288448,0.25437457404136654,-0.7260285747651011
1789062379156716500,5.752716552734375,-0.2264969715565443,0.23988383800461888,-0.7307355103470384
1789062379166677800,5.762677734375,-0.32763796317279337,0.1931529203593731,-0.5453722940158099
1789062379176638700,5.772638671875,-0.30732056680917735,0.16077829871624708,-0.4643457966022193
1789062379186598700,5.7825986328125,-0.23501696262061594,0.12664850396886468,-0.3491150144329294
1789062379196559600,5.7925595703125,-0.24272855991125106,0.06293006503507495,-0.27032087918128817
1789062379206519600,5.80251953125,-0.3493909452974796,0.025700112315267323,-0.2595847099050879
1789062379216480800,5.812480712890625,-0.3695201256126165,0.05986264028847217,-0.23224497715663164
1789062379226440700,5.822440673828125,-0.35457331637144085,0.05655205443575978,-0.20816302236141634
1789062379236401700,5.832401611328125,-0.2666764217317104,0.06720671944096684,-0.15358266985742375
1789062379246361900,5.84236181640625,-0.11699673239588737,0.0925803762808442,-0.07423091898933053
1789062379256322600,5.852322509765625,-0.014379823008179663,0.10178265052065252,0.009596972645819187
1789062379266282500,5.862282470703125,0.03543313243091106,-0.008447656480222939,0.1755594690669328
1789062379276243700,5.87224365234375,0.1517781229197979,-0.2760965765058994,0.3937617096826434
1789062379286204700,5.88220458984375,0.40735155135691165,-0.4551205798782408,0.5358415915392339
1789062379296164900,5.892164794921875,0.7086006892979144,-0.525565112196654,0.5954466768700629
1789062379306125600,5.90212548828125,0.701844785296917,-0.4998195533044636,0.5519272320846096
1789062379316085500,5.91208544921875,0.846744254618883,-0.43817280607819553,0.6549313506916165
1789062379326046700,5.922046630859375,0.6782476366102695,-0.4917360539615154,0.5746775912161917
1789062379336006700,5.932006591796875,0.5053057296305895,-0.5144269014582038,0.5255696422412991
1789062379345967900,5.9419677734375,0.2819464715778828,-0.6382650241814554,0.5703520196346565
1789062379355927800,5.951927734375,0.2782277433156967,-0.6115669868700206,0.5877580951288343
1789062379365888500,5.961888427734375,-0.42075814541876316,-0.4415720931276679,0.24381675700675695
1789062379375848700,5.9718486328125,-0.618588994461298,-0.37637832094430923,0.2688508066287264
1789062379385809700,5.9818095703125,-0.5823819550484418,-0.22922435069382188,0.37437406844981014
1789062379395769600,5.99176953125,-0.4448030378729105,-0.020096300958842038,0.4234951691672206
1789062379405730800,6.001730712890625,-0.4382435332268476,-0.05359174332544207,0.4323390949560329
1789062379415691500,6.01169140625,-0.5212386272996664,0.3184815739013254,0.5657460236765444
1789062379425651500,6.0216513671875,-0.5108189400941133,0.2660143045611679,0.5927034425765275
1789062379435612700,6.03161279296875,-1.2221230431318282,0.3596338146314025,0.5517854489937425
1789062379445572600,6.041572509765625,-1.7709242156177758,0.5687853913724422,0.39869730292130257
1789062379455533800,6.051533935546875,-1.7646166399061678,0.5344092206485569,0.4205040245272219
1789062379465493800,6.06149365234375,-2.0722779829770324,0.7986784351080656,0.24883721551727503
1789062379475454500,6.071454345703125,-2.073041953086853,0.7980611799925565,0.2288753545930609
1789062379485414700,6.08141455078125,-0.6892617825776338,0.35875863923206924,0.4317728759080171
1789062379495375600,6.091375732421875,-0.029442952105402945,0.03300093684792518,0.37790209644548595
1789062379505336800,6.1013369140625,-0.034489129579067225,0.051812166432291265,0.33916751131638884
1789062379515296800,6.111296875,0.8757716116607188,-0.8374478723548352,0.2990057429283857
1789062379525257500,6.121257568359375,0.87590020647645,-1.0398504132270812,0.2194592184068635
1789062379535217700,6.1312177734375,0.4985632696330547,-0.9167446964316069,0.015358970238640903
1789062379545178600,6.1411787109375,0.10852467212677001,-0.6032141690663994,-0.19494992331136016
1789062379555138600,6.151138671875,0.10760463467240333,-0.5970489244349301,-0.1938267645003274
1789062379565099800,6.161099853515625,0.07989537449181079,-0.504292899326235,-0.3187310551503673
1789062379575059700,6.171059814453125,0.0755944624274969,-0.4850035308361053,-0.33819274800010024
1789062379585020700,6.181020751953125,0.8567945239901542,-0.6922448900416494,-0.27874168418720363
1789062379594980600,6.190980712890625,1.1958879471570252,-0.6776923408150672,-0.4524629049763083
1789062379604941600,6.200941650390625,1.1923965979099274,-0.6654812401480973,-0.4736657789375633
1789062379614902800,6.21090283203125,1.5085533821254968,-1.1371547492899,-0.19452333192974328
1789062379624862700,6.22086279296875,1.2195505622953176,-1.0825852469734847,-0.13102182368226348
1789062379634823700,6.23082373046875,0.633165801346302,-0.7809107232272624,-0.20318448503017425
1789062379644783600,6.24078369140625,0.31482582787275315,-0.5506168436057866,-0.14418058046288787
1789062379654744600,6.25074462890625,0.3158908267557621,-0.5507468997262418,-0.12737740276530385
1789062379664704500,6.26070458984375,-0.04508066622018814,-0.3133146926574409,-0.2222729606533423
1789062379674665700,6.270665771484375,0.23313947831094264,-0.4162247397728264,-0.23022768251746892
1789062379684625700,6.280625732421875,0.8148632617115974,-0.7133866084001957,-0.16615794592797756
1789062379694587000,6.2905869140625,1.1729594915121793,-1.031856345733255,-0.03427300261035561
1789062379704546800,6.300546875,1.4744786785662174,-1.2232505858570337,0.019979469646140932
1789062379714507500,6.310507568359375,1.7325713963478802,-1.3788563042409718,0.13146109188236296
1789062379724468700,6.32046875,1.7310960630983114,-1.3680362195409834,0.13801752778850496
1789062379734428700,6.3304287109375,1.3730723140120507,-1.2700070763349531,0.1267041066136211
1789062379744390000,6.340389892578125,0.8890823441326617,-1.099302280757576,0.03534903434403241
1789062379754349800,6.350349853515625,0.5282283400565385,-0.9764712892502546,-0.03731470839381218
1789062379764310500,6.360310546875,0.29702655180990695,-1.0025029716074465,0.012812829419784247
1789062379774270700,6.370270751953125,0.2980734305143356,-1.0038871194422245,0.02645867559760809
1789062379784231700,6.380231689453125,0.33154256939589977,-1.2707505881786345,0.060216020303405816
1789062379794191600,6.390191650390625,0.42486207360625267,-1.4177495139978826,0.0478773112013936
1789062379804152800,6.40015283203125,0.43253567697405815,-1.4597285609409212,-0.01776727348938584
1789062379814112800,6.41011279296875,0.21344927393496035,-1.4106515185609458,-0.10432849907856434
1789062379824073500,6.420073486328125,-0.07936579765975475,-1.2382951563842595,-0.16466339652128517
1789062379834034700,6.43003466796875,-0.30679332806468007,-1.1285818589948118,-0.17364515987820922
1789062379843994600,6.43999462890625,-0.4237929830700159,-1.214789193112403,-0.05036562088578939
1789062379853955800,6.449955810546875,-0.4823030397057533,-1.3652161936841904,0.10087200194913894
1789062379863915500,6.45991552734375,-0.33891982016563416,-1.5492098021626473,0.14698906201235948
1789062379873876500,6.46987646484375,-0.13730185379981993,-1.719961651752144,0.11491956079564988
1789062379883836400,6.47983642578125,-0.06898936507403851,-1.8168078687839209,0.002905366052687168
1789062379893797600,6.489797607421875,-0.26744623706042764,-1.8787243728622793,-0.03901141104279086
1789062379903757600,6.499757568359375,-0.814028564453125,-1.764082971420884,-0.10798212621528655
1789062379913718500,6.509718505859375,-1.3249708386659622,-1.4513568923063576,-0.23653197029344736
1789062379923678700,6.5196787109375,-1.77145729958117,-1.2057130294702947,-0.2779677772052586
1789062379933639400,6.529639404296875,-2.0843799241811034,-0.9422840652272104,-0.3780523916363716
1789062379943600600,6.5396005859375,-1.9718179593622682,-0.6860445740967989,-0.6130119249813258
1789062379953560600,6.549560546875,-1.348229549178481,-0.6063784783162176,-0.8056067730665206
1789062379963521500,6.559521484375,-0.8858867629617452,-0.7690837995722889,-0.8601667038369923
1789062379973481700,6.569481689453125,-0.9188520439743995,-0.8413551089264452,-0.9778215348154305
1789062379983442400,6.5794423828125,-1.2537152822256088,-0.7776118278123438,-1.023076973080635
1789062379993402400,6.58940234375,-1.8861650442570448,-0.4439708248324692,-1.0485181421987713
1789062380003363600,6.599363525390625,-2.295325690862536,0.0656948535732925,-1.0019057363666592
1789062380013323500,6.609323486328125,-2.5553274571359155,0.644782150990516,-0.7691706010729074
1789062380023284500,6.619284423828125,-2.542287942820787,0.5695888167098164,-0.770311368605867
1789062380033244700,6.62924462890625,-2.3097774100631474,1.8417200455918907,-0.3328275677051395
1789062380043205400,6.639205322265625,-1.908126700696349,2.3635445099554953,-0.21850730624319983
1789062380053166600,6.64916650390625,-1.2901847719669342,2.5172160454064607,-0.03445035933810286
1789062380063126500,6.65912646484375,-0.5238029248297215,2.332380725406855,0.12228386988542042
1789062380073087500,6.66908740234375,-0.5200689989984035,2.3073707873128355,0.08982050137976184
1789062380083047700,6.679047607421875,0.7302876204490661,1.621023869268596,0.14968094971114768
1789062380093008600,6.689008544921875,0.8933908549815416,1.293767306628823,-0.04854560695097316
1789062380102968600,6.698968505859375,0.9127654175370931,0.9318084100507199,-0.18944836675301194
1789062380112929500,6.708929443359375,0.8603279588133096,0.6562153991527855,-0.3341554187754169
1789062380122889500,6.718889404296875,0.8246499117106199,0.5040653741806745,-0.46384033129811286
1789062380132850700,6.7288505859375,0.7797334961414337,0.3264034529417753,-0.48887671900764107
1789062380142810600,6.738810546875,0.6974269688546657,0.15938143753036857,-0.4607394061407074
1789062380152771600,6.748771484375,0.6127396839112043,0.020504297237843274,-0.42892939611040054
1789062380162732500,6.758732666015625,0.4892775548934936,-0.07145590131804347,-0.4071900771848857
1789062380172692500,6.7686923828125,0.48857086792886256,-0.06987886125966906,-0.39242008581534027
1789062380182653400,6.7786533203125,0.30187632992863656,-0.1053814056649804,-0.26014727569129314
1789062380192613600,6.788613525390625,0.3752197985589504,0.0123413029178977,-0.19948919244250282
1789062380202574600,6.79857470703125,0.6053010583430528,0.13829758683890103,-0.10010678973030299
1789062380212534500,6.808534423828125,1.0011848747462033,0.24154388017132877,0.008572835496161132
1789062380222495500,6.81849560546875,1.003058267402649,0.23472002550065516,-0.027998105325642973
1789062380232455400,6.828455322265625,1.9183774610757827,0.2383345627360046,0.2733129006041214
1789062380242416600,6.838416748046875,2.065740105640888,0.17371917496249079,0.3320033553080633
1789062380252377600,6.848377685546875,2.0683032341271637,0.09857669408619403,0.3465808563128114
1789062380262337500,6.858337646484375,1.822493074813485,0.0226674666211009,0.31149748716764153
1789062380272298500,6.868298583984375,1.4837813444405794,-0.0018814298324286937,0.18239903276339173
1789062380282258400,6.878258544921875,1.222403029116988,-0.03687105627954006,0.08041280422834679
1789062380292219600,6.8882197265625,1.0913520524054765,-0.0951240694142878,0.06068129972759634
1789062380302179600,6.8981796875,1.1197563091129064,-0.1588829864889383,0.06716547411512583
1789062380312140500,6.908140625,1.1852929033845663,-0.21870178763568401,0.07305042223418132
1789062380322100700,6.918100830078125,1.1845745259821414,-0.21404475561007857,0.06553496857015416
1789062380332061400,6.9280615234375,1.2306161461889744,-0.27475597555190323,0.008149550316482781
1789062380342021400,6.938021484375,1.2187678874850272,-0.43565570869073267,-0.030038360715284942
1789062380351982600,6.947982666015625,1.243022623297572,-0.43455797658190126,-0.020746828156290576
1789062380361943600,6.957943603515625,1.223134266000986,-0.3606117197528481,0.003610902239847928
1789062380371903500,6.967903564453125,1.2245844648092985,-0.3684856679983437,-0.0008441774728707969
1789062380381864400,6.977864501953125,0.9759422969400882,-0.16411694161966442,0.03568270501149818
1789062380391824400,6.987824462890625,0.8162754665970802,-0.07965908151790499,-0.04367930238912813
1789062380401785600,6.99778564453125,0.5397457593709231,-0.07616378674805165,-0.11914010110013186
1789062380411745500,7.00774560546875,0.27520225801467896,-0.05985226502493023,-0.2394358019761741
1789062380421706500,7.01770654296875,0.2715606866419315,-0.03884630187526345,-0.25266440912261606
1789062380431666700,7.027666748046875,0.4295078535854816,-0.4566286463536322,-0.17465249202353877
1789062380441627400,7.03762744140625,0.7935095080375671,-0.7251908818319439,-0.06847200383616145
1789062380451587300,7.04758740234375,1.0949369251549244,-0.898598214366287,-0.034737519416143184
1789062380461548500,7.057548583984375,1.2342016034603118,-1.0503723917633294,-0.06247722496734932
1789062380471509500,7.067509521484375,1.230786242058873,-1.0328050247602165,-0.0797136338498909
1789062380481469700,7.0774697265625,1.0096569350153206,-1.4811659012451768,-0.06247544856879394
1789062380491430400,7.087430419921875,0.5456944386422634,-1.482701294118911,-0.0987438308140263
1789062380501390300,7.097390380859375,0.024347090271115302,-1.3097193473897875,-0.20682231180956587
1789062380511351600,7.1073515625,-0.3512199142903089,-1.1018256617553532,-0.32655378466527907
1789062380521311500,7.1173115234375,-0.353364525103569,-1.091053800111264,-0.3175665779482573
1789062380531272700,7.127272705078125,-0.7217617841660976,-0.7091235441282391,-0.43885150905735787
1789062380541232600,7.137232666015625,-0.8724719855934381,-0.5823457146912813,-0.5030009232869371
1789062380551193600,7.147193603515625,-1.0748241114526986,-0.5500966191239655,-0.504523712407425
1789062380561154600,7.157154541015625,-1.4096271439492702,-0.5433803164809942,-0.44606334013231097
1789062380571114500,7.167114501953125,-1.4086983386665581,-0.5481782182820141,-0.43875221340134735
1789062380581075500,7.177075439453125,-2.3576743027478457,-0.8020113789230585,-0.14134537530327215
1789062380591035600,7.18703564453125,-2.357223636370897,-0.8039243729375303,-0.15968137032501398
1789062380600996600,7.19699658203125,-2.6207915706932545,-0.8901112487889826,0.02516311936173588
1789062380610956500,7.20695654296875,-2.3087100730925796,-0.49618499619439244,-0.15053347488725558
1789062380620917500,7.21691748046875,-2.3074515974640843,-0.5046002117097378,-0.20221494587827474
1789062380630877400,7.22687744140625,-1.472436943605542,0.0053830082125961775,0.21499337983811273
1789062380640838700,7.236838623046875,-1.1221166085034608,0.27176965321749447,0.42880080129466946
1789062380650798600,7.246798583984375,-0.9021937546402216,0.5712874373212457,0.47110502507146446
1789062380660759600,7.256759521484375,-0.7636071217268705,0.8470217563860117,0.5402909721635282
1789062380670720500,7.266720458984375,-0.6546890663683415,0.9899025793619454,0.6067131901632994
1789062380680680400,7.276680419921875,-0.4922007488638162,1.0107856467843055,0.6681451986603438
1789062380690641700,7.2866416015625,-0.31119945406913757,0.9832971897475421,0.7498821093656122
1789062380700601600,7.2966015625,-0.1430897895514965,0.9795102185547351,0.7582819081161171
1789062380710562600,7.3065625,-0.012103110247850418,0.9938725059062242,0.6924778220146894
1789062380720522800,7.316522705078125,-0.012703998750448225,1.0008902757138014,0.7200720775134861
1789062380730483500,7.3264833984375,0.05022270528376102,0.8544606742151081,0.5240403868474066
1789062380740443400,7.336443359375,0.05160217694342136,0.851343565107882,0.56370523856394
1789062380750404600,7.346404541015625,-0.13405658826828,0.7837674278326332,0.2531183269025758
1789062380760365600,7.356365478515625,-0.3544038050234318,0.7235596273683012,0.12776484944662078
1789062380770325500,7.366325439453125,-0.3496124790936708,0.6992924704656005,0.1649370258308947
1789062380780286500,7.376286376953125,-0.563509496796131,0.6739836955554783,0.04724084906191565
1789062380790246400,7.386246337890625,-0.5582026225596666,0.6447859503827988,0.064941500755609
1789062380800207600,7.39620751953125,-0.3694324473291635,0.8016139040380715,0.09800562533312476
1789062380810167600,7.40616748046875,-0.03212590757906437,0.8607586053155362,0.17656722133737057
1789062380820128500,7.41612841796875,-0.02787292630970478,0.8359855447173118,0.16242314331382512
1789062380830088700,7.426088623046875,0.9716092361718416,0.8772206414252519,0.37594774750731885
1789062380840049400,7.43604931640625,1.3712708175480366,0.8158947967164218,0.41465898829344655
1789062380850009300,7.44600927734375,1.3726082036316394,0.8072089475661516,0.397550982430391
1789062380859970600,7.455970458984375,1.8671534697949885,0.5731259047947823,0.3323994784861803
1789062380869932000,7.46593212890625,1.8657681529164314,0.5807770040698349,0.32042642435878516
1789062380879892000,7.47589208984375,2.1717413967698813,0.07123729013130069,0.3788926783854142
1789062380889853000,7.48585302734375,2.168478011059761,0.09009221272692083,0.3727397817788645
1789062380899812900,7.495812744140625,2.540738959813118,-0.39979938241168855,0.3706856257280335
1789062380909774000,7.505774169921875,2.5069360589325425,-0.6535887039110064,0.27320122039057315
1789062380919734000,7.515734130859375,2.343728779503703,-0.8466887250393629,0.1329526821469888
1789062380929695000,7.525695068359375,2.0691443611264226,-0.9459348428197204,-0.019517519256775265
1789062380939655200,7.5356552734375,1.6251012017101047,-0.9493862984478473,-0.13313043160038068
1789062380949615900,7.545615966796875,0.9377677568465471,-0.8130828080356121,-0.1441667985327076
1789062380959576800,7.555576904296875,0.2883873182803392,-0.5502024175859987,-0.1058683032659348
1789062380969537000,7.565537109375,0.29199849451482296,-0.5780924411609768,-0.04382520453268662
1789062380979498000,7.575498046875,-0.6080892277568578,0.1183504850924015,-0.029651060164440423
1789062380989458000,7.5854580078125,-0.6041822834461927,0.08754866572394966,0.008934544948022812
1789062380999419000,7.5954189453125,-1.0929232472449542,0.6469922282554209,-0.017046448401547967
1789062381009378800,7.60537890625,-1.1181447822630404,0.7073198557071387,0.07192370149288325
1789062381019340000,7.615340087890625,-0.7850339406371116,0.5730857189148664,0.22686490981979293
1789062381029300000,7.625300048828125,-0.14902619386315344,0.31003201772496103,0.4390489678582176
1789062381039261000,7.635260986328125,-0.14618892461061478,0.29745062244087456,0.3989122243136167
1789062381049222000,7.645221923828125,0.93011578078866,-0.12010638884902,0.6650020783290267
1789062381059181800,7.655181884765625,1.254434828671813,-0.2750190104022622,0.6141307729434221
1789062381069143000,7.66514306640625,1.4597446352928876,-0.4775688507907092,0.5137194838412106
1789062381079103000,7.67510302734375,1.5302853214621543,-0.726187637784332,0.5464896441405639
1789062381089064000,7.68506396484375,1.4668454072088002,-0.941281610186398,0.56988531543836
1789062381099024100,7.695024169921875,1.2960381741702556,-1.0667539099827408,0.5710221009159461
1789062381108984800,7.70498486328125,0.9161837015479802,-1.0826732175178826,0.5238798990560696
1789062381118944800,7.71494482421875,0.3793395088374614,-1.0225741381250322,0.40923371184170243
1789062381128906000,7.724906005859375,-0.032872926554083824,-0.8795189814954996,0.36330753470808264
1789062381138866000,7.734865966796875,-0.03376315339207649,-0.878910201947391,0.397844887343049
1789062381148827000,7.744826904296875,-0.6949953577935696,-0.5405902473710477,0.27650300188232213
1789062381158787800,7.754787841796875,-1.0145026214808226,-0.4252909665428102,0.1865492112454027
1789062381168747800,7.764747802734375,-1.3890110569000242,-0.38996144061684607,0.10299410866964608
1789062381178709000,7.774708984375,-1.6520441536933184,-0.4040224069342017,0.05202449400871992
1789062381188669000,7.7846689453125,-1.6550632092535495,-0.38641383113786576,0.05938333233892917
1789062381198630000,7.7946298828125,-1.3891162708401679,-0.45180108006671066,-0.01643346760235727
1789062381208590000,7.804590087890625,-1.034022729986906,-0.6115552964322268,0.12859002995807678
1789062381218551000,7.814551025390625,-0.6604314094126225,-0.8193737248733639,0.3540423147672787
1789062381228511000,7.824510986328125,-0.3989519718021154,-0.9960196009375154,0.46300990835595873
1789062381238472000,7.834471923828125,-0.40461423534750934,-0.9601808103151619,0.44544250482022757
1789062381248433000,7.844432861328125,0.10761574058830738,-1.152909952304512,0.4096190578974783
1789062381258393000,7.85439306640625,0.11982990999519824,-1.3287472884647547,0.13193753202138467
1789062381268354000,7.86435400390625,-0.26365853521525856,-1.2056510701499878,-0.16148370703924447
1789062381278314000,7.87431396484375,-1.2313579044669867,-0.9240491742260754,-0.3360260349528864
1789062381288275000,7.88427490234375,-2.2817495854526757,-0.2751750777468085,-0.5426764059953392
1789062381298235000,7.89423486328125,-3.0152023919343947,0.43570013235434885,-0.46828846981339156
1789062381308196000,7.904196044921875,-3.6201895620226856,1.2174731714993714,-0.4186609174111858
1789062381318156000,7.914156005859375,-3.9172745660215615,1.9793354953855276,-0.4103447783561423
1789062381328117000,7.924116943359375,-3.9329081884831187,2.4650205787450075,-0.2584261875197291
1789062381338077200,7.9340771484375,-3.9249499229550358,2.428725422657281,-0.3122668275723234
1789062381348038000,7.944037841796875,-2.3290187016278505,2.830142761659622,0.03683697134684771
1789062381357998800,7.953998779296875,-1.095461825811863,2.5128186872303484,0.148549150935933
1789062381367959000,7.963958984375,0.01786649608016014,2.09334371348992,0.1764000480769202
1789062381377920000,7.973919921875,1.166848315155506,1.7071550694100557,0.05610073503826279
1789062381387880000,7.9838798828125,2.108540551969409,1.334028443738073,-0.08314730722615495
1789062381397841000,7.9938408203125,2.925588171982765,0.8901866521127522,-0.2554288688672706
1789062381407800800,8.00380078125,3.271194922566414,0.33222952874675393,-0.3579457884792238
1789062381417762000,8.013761962890625,3.480974568077922,-0.1985692463196814,-0.4003366310935467
1789062381427722000,8.023721923828125,3.2722511536210774,-0.7238062956057488,-0.4061717669878155
1789062381437683000,8.033682861328124,3.265342104884982,-0.6800945796512067,-0.37293095696941014
1789062381447644000,8.043643798828125,2.0547990249097348,-0.8349946339838207,-0.7356072811018675
1789062381457603800,8.053603759765625,1.3498685485571622,-0.5198686541207135,-1.0341408034086226
1789062381467565000,8.06356494140625,0.8106225554019212,-0.22827143388316035,-1.238184535616636
1789062381477525000,8.07352490234375,0.5418155513823032,-0.03561652617380023,-1.1712523222681135
1789062381487486000,8.08348583984375,0.22417992678582668,0.16058716005831955,-1.0138334169823675
1789062381497446100,8.093446044921874,-0.02211538569629192,0.46046223316714163,-0.8854979097746312
1789062381507406800,8.10340673828125,-0.217674198153615,0.7286183720625936,-0.7719927458215504
1789062381517366800,8.11336669921875,-0.2985562455952167,0.9965355876356363,-0.7506590850874781
1789062381527328000,8.123327880859375,-0.2306008997440338,1.1301095069535076,-0.6941140449143945
1789062381537289000,8.1332890625,-0.22518238182663916,1.096470710593462,-0.7220937195342033
1789062381547249000,8.143248779296876,0.243636906927824,1.001049265667796,-0.5018749514643103
1789062381557209900,8.1532099609375,0.45707332138121126,0.9027927434466779,-0.47440677003059534
1789062381567169800,8.163169677734375,0.6829004308521747,0.7710667900830507,-0.4974554545216262
1789062381577131000,8.173131103515624,0.9001368221104145,0.5873252566695213,-0.5204689581014216
1789062381587091000,8.183091064453125,0.8993073855489492,0.5922814177721738,-0.5386338891388848
1789062381597052000,8.193052001953125,1.1604741039484738,0.17915566692799328,-0.5909257653795182
1789062381607012000,8.20301220703125,1.1345979044139385,0.03764715521857142,-0.6700286012541502
1789062381616972800,8.212972900390625,1.041851816177368,-0.15545169686600566,-0.6728411744568497
1789062381626932700,8.2229326171875,0.880029269105196,-0.3081653470702469,-0.657217854193598
1789062381636894000,8.23289404296875,0.6255769536525011,-0.352463776871562,-0.6497945723250508
1789062381646855000,8.24285498046875,0.525842321702838,-0.2764507967710495,-0.6865296542000026
1789062381656815000,8.252815185546876,0.6290279708892107,-0.2315399341598153,-0.6202509363241493
1789062381666776000,8.262776123046875,0.7755255230575799,-0.2542129537388682,-0.4965374628938734
1789062381676736000,8.272736083984375,0.8373977496027946,-0.25346082019731403,-0.39432774606756865
1789062381686697000,8.282697021484376,0.8049462633311748,-0.18875760800987482,-0.3376861867174506
1789062381696657000,8.292656982421875,0.7053793891638517,-0.12672536859735845,-0.27908191245961933
1789062381706618000,8.3026181640625,0.5579857649385929,-0.07627922982126474,-0.2545111329678446
1789062381716578000,8.312578125,0.44623277841508385,-0.0817424636632204,-0.25657679679337886
1789062381726539000,8.3225390625,0.42086686649024485,-0.17465367933362722,-0.22888368402998893
1789062381736500000,8.3325,0.42169630305171013,-0.18126900582015512,-0.22927264681495724
1789062381746460000,8.3424599609375,0.47521629631519313,-0.46715720076113937,-0.2019386131549254
1789062381756420900,8.3524208984375,0.4349555975973606,-0.5932887681838125,-0.19000388174392283
1789062381766381000,8.362381103515625,0.3989806133747101,-0.6692352589193731,-0.17950440730042755
1789062381776342000,8.372342041015624,0.4238660483062267,-0.7916834616541862,-0.19474314869288353
1789062381786302000,8.382302001953125,0.4241460342913866,-0.7938580292142927,-0.194311826337222
1789062381796263000,8.392262939453126,0.446178417879343,-1.0627059497661888,-0.10826788435410707
1789062381806222800,8.402222900390624,0.4048866225481033,-1.1638703953232616,-0.1477812261702027
1789062381816184000,8.41218408203125,0.3006096709936857,-1.2715513831675052,-0.19439302008096127
1789062381826145000,8.42214501953125,0.16047639316022394,-1.3670949931681156,-0.2318423146398738
1789062381836105000,8.43210498046875,0.04200374299287796,-1.4620985049426556,-0.26158077909313143
1789062381846066000,8.44206591796875,-0.012308277431130409,-1.5169643598571418,-0.2601193465047516
1789062381856025900,8.45202587890625,-0.15188859755694864,-1.5136214791700242,-0.3394083708675578
1789062381865986800,8.46198681640625,-0.27883623060286045,-1.4143784301295876,-0.45064423818178473
1789062381875946800,8.47194677734375,-0.3737251760870218,-1.2236619431369007,-0.5689342617912218
1789062381885907700,8.48190771484375,-0.5632108061105012,-1.1039172272071243,-0.6047567953985185
1789062381895868000,8.491867919921875,-0.8471271164566277,-1.0017036379233002,-0.5640263968097046
1789062381905828600,8.50182861328125,-0.846020616519451,-1.0103003474853933,-0.5381843918057159
1789062381915788500,8.51178857421875,-1.7436954324305056,-0.8162759780537336,-0.1923626467645168
1789062381925749800,8.521749755859375,-2.1139269211828706,-0.5989128916759043,0.06776800658553839
1789062381935710700,8.531710693359376,-2.202109062504768,-0.2526335755929351,0.285076787226554
1789062381945670700,8.541670654296874,-1.7896809385359287,0.22878990479931233,0.34501046519093215
1789062381955631600,8.551631591796875,-1.7910609947174787,0.23818565578460693,0.2986577149420045
1789062381965591600,8.561591552734376,-0.7582879725307226,0.3959377385474741,0.5195805578943342
1789062381975552800,8.571552734375,-0.34039106176197526,0.23363215719871222,0.6273573342632502
1789062381985512700,8.5815126953125,0.03901040639579296,0.17660554405376314,0.6228262667048722
1789062381995473700,8.5914736328125,0.2272059966087341,0.22621267472244797,0.3609194705277681
1789062382005433900,8.601433837890625,0.30880759049654005,0.10769742752239107,0.18403940211525185
1789062382015394600,8.61139453125,-0.17611702988445757,0.09098499684818089,-0.025271155446628106
1789062382025355800,8.621355712890624,-0.9508440960407256,0.3351080067925155,-0.5036114564007148
1789062382035315700,8.631315673828125,-0.9529109654426574,0.34930699334107335,-0.41428430976215747
1789062382045276700,8.641276611328125,-2.419039748814702,0.9662637104254216,-0.7325016432367265
1789062382055236900,8.65123681640625,-2.5634628327965734,1.312221101077646,-0.5914691515412182
1789062382065197800,8.66119775390625,-2.136950069373846,1.6094915446460245,-0.4383613874528557
1789062382075157800,8.67115771484375,-1.3068740409612656,1.6161521715790033,-0.23784665135489774
1789062382085118700,8.68111865234375,-0.49824470520317554,1.4126236954167484,-0.05742564979935996
1789062382095078700,8.69107861328125,0.25545535501539707,1.1004587573163211,-0.032030502646882085
1789062382105039600,8.70103955078125,0.9310919323444365,0.8999733021117746,-0.147485522026103
1789062382115000800,8.711000732421875,1.5088853905588389,0.8004026285521686,-0.27534455256219953
1789062382124960800,8.720960693359375,1.8302245458483695,0.7130364797882736,-0.43111346215121443
1789062382134921700,8.730921630859376,1.829983138307929,0.7146941838674247,-0.4276402330826968
1789062382144881700,8.740881591796875,1.6219430299401283,0.7515560339272022,-1.1700470381315797
1789062382154842600,8.750842529296875,1.109852170214057,0.6969942765258252,-1.3485371538229285
1789062382164802800,8.760802734375,0.38157413602173323,0.6529533286169171,-1.252830900606513
1789062382174763800,8.770763671875,-0.6051636956989764,1.0234420070007444,-1.3473966054856776
1789062382184723700,8.7807236328125,-1.25518652382195,1.5348431308969854,-1.2483223371408878
1789062382194684700,8.7906845703125,-1.5986545088112354,1.9150899638377128,-0.9243333979949354
1789062382204645600,8.800645751953125,-1.5119132139474152,2.3732348599731923,-0.7332461779937147
1789062382214605800,8.810605712890625,-0.9092471802830696,2.717072555057704,-0.5937837851591408
1789062382224566800,8.82056689453125,-0.08060206145644187,2.7371728015393018,-0.4971907757034525
1789062382234526700,8.830526611328125,0.6839642606914043,2.3916855856820938,-0.3944246305707842
1789062382244487700,8.84048779296875,1.3387673088282346,1.9822585432253776,-0.329977548568882
1789062382254447600,8.850447509765624,1.339853935021162,1.9714074788652358,-0.3839450664041564
1789062382264408600,8.86040869140625,2.0739812797635793,0.9797980955854058,-0.5264659334938973
1789062382274368800,8.87036865234375,2.044706085440516,0.5108390330340713,-0.6939004021637142
1789062382284329700,8.880329833984375,2.0439988139539955,0.5177796459522098,-0.6903415406383574
1789062382294290700,8.890290771484375,1.6720149285763501,0.03415631742812693,-0.7575314550749958
1789062382304250600,8.900250732421876,1.6717396187663078,0.03825096633061766,-0.7264901278622448
1789062382314211600,8.910211669921875,0.9136761026412248,0.2839554733127355,-0.6474032202091068
1789062382324171800,8.920171875,0.6033394028812646,0.5003470112446695,-0.6469464163523166
1789062382334132700,8.9301328125,0.6049269643336534,0.4844288727533072,-0.622145517899096
1789062382344092700,8.9400927734375,0.20712416256666183,0.6030384471733122,-0.6039926426256075
1789062382354053600,8.9500537109375,0.19681144286692143,0.6071368954680859,-0.6410082584749907
1789062382364013600,8.960013671875,0.25531331619620323,0.5131207142304629,-0.623030337909609
1789062382373974800,8.969974853515625,0.20405659168958662,0.3059778469633311,-0.583384994611144
1789062382383935700,8.979935791015626,0.07702946366667747,0.2006019942563027,-0.5947296146418899
1789062382393895700,8.989895751953124,0.023429390904307363,0.17418284695148467,-0.5891040663776919
1789062382403856600,8.999856689453125,0.027786417070031166,0.1447626181345433,-0.5400782792609184
1789062382413816600,9.009816650390626,0.07807984950244426,0.14800569170899688,-0.46969607158899307
1789062382423777800,9.01977783203125,0.15448504379093647,0.10220920536965131,-0.3770749614389613
1789062382433737700,9.02973779296875,0.240291103631258,0.07245967153310776,-0.2757441098064184
1789062382443698700,9.03969873046875,0.26812135984301566,0.03827317816242575,-0.2064077213929966
1789062382453659600,9.04965966796875,0.263631647208333,0.05518251964822411,-0.16299107939489185
1789062382463619600,9.05961962890625,0.2709440160483122,0.01920391869638115,-0.1527233678806573
1789062382473580500,9.06958056640625,0.2737836233884096,-0.12045849022231996,-0.176404139730148
1789062382483540700,9.079540771484375,0.2425081951588392,-0.25927622847780585,-0.21133158766124396
1789062382493501700,9.089501708984375,0.05079027603864669,-0.3164061193341389,-0.27954264357285574
1789062382503461600,9.099461669921874,-0.26334464696049686,-0.27813100494295356,-0.29553054109849036
1789062382513422800,9.1094228515625,-0.480699696162343,-0.11802461413890122,-0.3367334891024977
1789062382523382800,9.1193828125,-0.6107990712374448,0.013545089217089116,-0.38657442852705715
1789062382533343700,9.12934375,-0.6107657534897327,0.07840466101001947,-0.36147407220322636
1789062382543304700,9.1393046875,-0.49997547451853747,0.10488759426604956,-0.33253698726072906
1789062382553264600,9.1492646484375,-0.5001525846511126,0.1051065707789734,-0.31741642888784405
1789062382563225900,9.159225830078125,-0.2482815178632736,0.06635251376442611,-0.3903310776468366
1789062382573185800,9.169185791015625,-0.3751362119287252,-0.036694201875291765,-0.45950580922514195
1789062382583146800,9.179146728515626,-0.6647744070529937,-0.03672839640583843,-0.6059308806791901
1789062382593106700,9.189106689453125,-1.0732248595625162,0.11044785874169319,-0.7887509883988648
1789062382603067600,9.199067626953125,-1.0756219838321208,0.1314371630175039,-0.734805828525871
1789062382613027800,9.20902783203125,-1.9525667309254406,0.45482042788788674,-0.9317215354848652
1789062382622988800,9.21898876953125,-2.0747662926614283,0.589843669231236,-1.0137079639717936
1789062382632949500,9.228949462890625,-1.3676654865324496,0.35316834494434296,-0.8357423836112022
1789062382642909700,9.23890966796875,-0.37741292468905446,-0.04187061813250184,-0.6396494642771781
1789062382652870700,9.24887060546875,-0.3821113116383552,0.02343172899186611,-0.6245126854218542
1789062382662830600,9.25883056640625,0.648800008329749,-0.3278515328582376,-1.158605095206201
1789062382672791800,9.268791748046874,0.0826186619758606,-0.3818333714798093,-1.3615138320349156
1789062382682751700,9.278751708984375,-1.1033534558445215,-0.1244607846662402,-1.589434845045209
1789062382692712700,9.288712646484376,-2.046445038062334,0.42645716077797113,-1.769128710503131
1789062382702672600,9.298672607421874,-2.6990023530989884,0.7812809447791427,-1.6000113302476704
1789062382712633600,9.308633544921875,-2.6111241631597277,1.108991315601021,-1.47661379089877
1789062382722594800,9.3185947265625,-1.6673931139945983,1.1791014283332972,-1.2550357171744106
1789062382732554800,9.3285546875,-0.46714171093106266,0.9956098510928452,-0.9916034649956971
1789062382742515700,9.338515625,0.6717500912845135,0.7788869623146951,-0.8536280227832496
1789062382752475600,9.3484755859375,0.6787070708155631,0.7323487907625734,-0.9489857548229396
1789062382762436600,9.3584365234375,1.7819377770632505,0.31343583481907844,-0.5721005072697997
1789062382772396800,9.368396728515625,1.685724889498949,0.45056028622537847,-0.5681338686611503
1789062382782357800,9.378357666015624,1.2007955929428338,0.8541246471937746,-0.7359482765592634
1789062382792317700,9.388317626953125,0.8931541236162185,1.2551859393000602,-0.8839631744880229
1789062382802278700,9.398278564453125,0.5321446367174386,1.5162749162882565,-0.9867511295937001
1789062382812239600,9.408239501953124,0.23951368951797483,1.7033803731769321,-1.245624330228567
1789062382822199800,9.41819970703125,0.18303367740511894,1.569212433488667,-1.3775091274157165
1789062382832160800,9.428160888671876,0.17540449770092964,1.0804478696186095,-1.4115500748358667
1789062382842120700,9.43812060546875,0.11063011997342109,0.5939073384735732,-1.5252182473309337
1789062382852081700,9.44808154296875,-0.040787352940440176,0.392474738612026,-1.7227936603076754
1789062382862041600,9.45804150390625,-0.20813830804526803,0.325389636256732,-1.9066585278399288
1789062382872002800,9.4680029296875,-0.484220856025815,0.3535150760227814,-1.9666437715947627
1789062382881963000,9.477962890625,-0.8215764956146479,0.5556340507132932,-1.924707687010616
1789062382891924000,9.487924072265624,-1.0284306090682744,0.9165625447977334,-1.84780564911589
1789062382901885000,9.497885009765625,-1.0656167226463555,1.2738899091176688,-1.7030637084431945
1789062382911844900,9.507844970703125,-1.0644938560962676,1.2642623952031136,-1.7241060580804943
1789062382921805800,9.517805908203124,-0.7233323944836855,1.669188619109243,-1.5918395680993795
1789062382931765800,9.527765869140625,-0.17830957149267196,1.573550901084393,-1.5444050322294234
1789062382941727000,9.53772705078125,0.45539983521103855,1.2059765027120708,-1.4487642454646528
1789062382951687000,9.54768701171875,0.8820604826718569,0.8546316468678414,-1.4158173768915234
1789062382961647900,9.55764794921875,1.2443307832866906,0.6329837958429009,-1.4484969728305934
1789062382971607800,9.56760791015625,1.5112117876797913,0.4946403605682775,-1.4962736001364887
1789062382981568800,9.57756884765625,1.712663165307045,0.3385579280506819,-1.4819330862253903
1789062382991530000,9.587530029296875,1.762255171471834,0.22422274301424622,-1.4682041283413767
1789062383001490000,9.597489990234376,1.7465403004676103,0.12724581227488815,-1.43698744456172
1789062383011451000,9.607450927734375,1.689600269627571,0.12067775899618863,-1.4281317918024956
1789062383021410800,9.617410888671875,1.6076847874850033,0.1095082032714039,-1.4787852897189557
1789062383031371800,9.627371826171874,1.5442127245277166,0.07491349442601203,-1.457008634457737
1789062383041332000,9.63733203125,1.5090163234621286,0.03969612363763153,-1.4467157885022461
1789062383051293000,9.64729296875,1.5102105016827583,0.017673238530382513,-1.4272930028907953
1789062383061252900,9.6572529296875,1.4314374092191458,0.1364179105721414,-1.438351280260831
1789062383071214000,9.667214111328125,1.3362480194836854,0.16526329864319414,-1.4509899586901067
1789062383081174800,9.6771748046875,1.0754998187571763,0.1132447959838435,-1.3720229510895907
1789062383091135000,9.687135009765624,1.0771487550079821,0.061833027045987546,-1.3342777423240244
1789062383101096000,9.697095947265625,0.4201455664783716,0.27608671269901097,-1.32938061793223
1789062383111056000,9.707055908203126,0.13272913905680178,0.3733410356076434,-1.2222880244351924
1789062383121017000,9.71701708984375,-0.0766623839199543,0.3103323158457875,-1.1530515527322889
1789062383130977000,9.72697705078125,-0.09487199434936046,0.20743226040145382,-1.0041427016384898
1789062383140937700,9.736937744140626,0.2580097156733274,0.10344037286611273,-0.7777816314212977
1789062383150898000,9.74689794921875,0.25865736592710015,0.07680270570609718,-0.781639768154174
1789062383160859000,9.75685888671875,0.7839017217367887,-0.211455670698639,-0.24980770451724527
1789062383170820000,9.766820068359374,0.7841957362473011,-0.23629859992899,-0.2477529639445245
1789062383180780000,9.776780029296875,0.8173585856586695,-0.36250633786041286,-0.11852412462625651
1789062383190740700,9.78674072265625,0.7048182481497526,-0.5545269297216088,-0.051625777014717454
1789062383200701000,9.796700927734374,0.4772141921341419,-0.7071406997479498,0.05481975075043737
1789062383210662000,9.806661865234375,0.23273265107572078,-0.7330972710423171,0.11403342561088502
1789062383220621800,9.816621826171875,0.009466916525363921,-0.6877834536533802,0.13965075501352547
1789062383230583000,9.8265830078125,-0.1485188288629055,-0.6328663069430739,0.19184567368570715
1789062383240543000,9.83654296875,-0.26813889549970626,-0.5929026184104382,0.17043215264845638
1789062383250504000,9.84650390625,-0.39004736533462997,-0.6092584907319396,0.12532470801919698
1789062383260465000,9.85646484375,-0.466682276725769,-0.691755426024273,0.15936386534105984
1789062383270424800,9.8664248046875,-0.6222527776658535,-0.7770780862618237,0.08773640684839337
1789062383280386000,9.876385986328126,-0.8126742272347212,-0.8019749924354255,0.017206351670995355
1789062383290346000,9.886345947265625,-0.9221113380312919,-0.8203437389492988,-0.08840466149877756
1789062383300306700,9.896306640625,-0.9228992735385895,-0.8240710158441216,-0.07543653191942722
1789062383310267000,9.906266845703126,-0.9919377384513616,-0.9624411564625799,-0.0002446224108338356
1789062383320227800,9.916227783203125,-0.9918220031172037,-0.9627290334932506,-0.002396795476041734
1789062383330189000,9.92618896484375,-0.7756704844862222,-1.0100636161200702,0.02527162123750895
1789062383340149000,9.93614892578125,-0.566685788744688,-1.1020022604312747,0.0836618143532425
1789062383350109700,9.946109619140625,-0.3029337300270796,-1.1820190693456678,0.12082458358835428
1789062383360070000,9.95606982421875,0.029988895550370216,-1.2014417818918823,0.09773414231482892
1789062383370030800,9.96603076171875,0.21151509100198745,-1.247250470125675,0.09509111699275671
1789062383379990800,9.97599072265625,0.23604455210268496,-1.3322189100980757,0.11895794946625828
1789062383389952000,9.985951904296876,0.015469956332445144,-1.4551754276812077,0.05724832960423082
1789062383399912000,9.995911865234374,0.015389876833558082,-1.4521864749982951,0.06034826838094741
1789062383409873000,10.005872802734375,-0.7005506538331508,-1.5338494436845183,-0.059509917860664424
1789062383419833900,10.015833740234376,-0.700222152531147,-1.5244557385258375,-0.0623026173191145
1789062383429793800,10.025793701171875,-0.9464397236019373,-1.440203337868303,-0.07462086815498768
1789062383439755000,10.035755126953125,-1.194338379627466,-1.229687633167207,0.10592636272925883
1789062383449715000,10.04571484375,-0.9658341599017382,-1.1044446120820939,0.25166655719168485
1789062383459676000,10.055676025390625,-0.6737514942348003,-0.9931488678067922,0.4159541061379015
1789062383469635800,10.0656357421875,-0.42516777855455873,-0.920906346155703,0.5920908271035179
1789062383479596800,10.0755966796875,-0.20393442661464214,-0.8364598111655562,0.6502021302126347
1789062383489557000,10.085556884765625,0.020911855125427245,-0.7401453629229218,0.5081399301432072
1789062383499518000,10.09551806640625,0.05794833109974861,-0.6619641719378531,0.24550701164864003
1789062383509479000,10.10547900390625,-0.48639060128033157,-0.5969625247931107,0.017713278279826043
1789062383519439000,10.115439208984375,-1.4053642258077859,-0.31759317369423806,-0.12082779845874755
1789062383529399800,10.12539990234375,-2.12758018348217,0.01356631466820836,-0.1291430607309565
1789062383539359700,10.13535986328125,-2.920081975781917,0.34594127976763994,-0.01669237426687032
1789062383549321000,10.145321044921875,-3.46049935080409,0.7785480857491492,-0.03895962605662644
1789062383559281000,10.155281005859376,-3.4305852740555998,1.099876135122776,0.014480360773205756
1789062383569242000,10.1652421875,-2.6454671622663737,1.2926271966829894,0.14740312270596623
1789062383579202000,10.1752021484375,-1.2990449547708034,1.1145616630792616,0.3501393525119871
1789062383589162800,10.185162841796876,-0.16255378395617007,0.6761492030262947,0.48084319628626104
1789062383599124000,10.1951240234375,0.7748363717496395,0.179617895878572,0.4843498892329633
1789062383609084000,10.205083984375,1.3966238699913025,-0.23505422589108346,0.4245912938408553
1789062383619045000,10.215045166015624,1.3979051419734954,-0.19422756385356188,0.3893842617833987
1789062383629005000,10.225005126953125,1.5946914503991603,-0.9014077918943018,0.11869904280174523
1789062383638965800,10.2349658203125,1.4868869092404842,-1.0439850288137793,0.01794029196873307
1789062383648926000,10.244926025390624,1.24429454292953,-0.981280150836706,-0.050157786821387704
1789062383658887000,10.254886962890625,0.8783756566792726,-0.7597924588095396,-0.04745977990906685
1789062383668846800,10.264846923828125,0.8765589626461266,-0.7280660719420761,-0.019639643232524394
1789062383678808000,10.27480810546875,0.08251461707949638,-0.22285985716320572,0.06327219300363213
1789062383688768800,10.284768798828125,-0.18857786752879618,-0.06595774229317904,0.12557656388841568
1789062383698728700,10.294728759765626,-0.3332213162630796,0.06331594081381335,0.19162519933544098
1789062383708690000,10.30468994140625,-0.33080957894623275,0.25547581328153607,0.26476280666273083
1789062383718649900,10.31464990234375,-0.22042612721025942,0.429970319998078,0.2474732702203095
1789062383728611000,10.324611083984376,0.02457856093943119,0.4821140930049121,0.2883065811943263
1789062383738571000,10.334571044921875,0.311153861361742,0.404860867052339,0.34707101444993166
1789062383748531700,10.34453173828125,0.574873186853528,0.2210110326924361,0.3830233119167387
1789062383758493000,10.354492919921874,0.7481465177446603,-0.011793952967133372,0.35354105071425435
1789062383768452900,10.364452880859375,0.8851157785892486,-0.2231033835954964,0.2980478942142799
1789062383778414000,10.3744140625,1.0579197384029626,-0.3531167974201962,0.2527036999533884
1789062383788374000,10.3843740234375,1.1675491569012402,-0.4447168208941817,0.22579258614685385
1789062383798334700,10.394334716796875,1.1425953329086302,-0.4979486813986674,0.22333015982238574
1789062383808295000,10.404294921875,0.9923340442925691,-0.5112058570524677,0.19265130924647672
1789062383818256000,10.414255859375,0.6857680952429771,-0.5785954222470522,0.1806713321879506
1789062383828215800,10.4242158203125,0.4575111282765865,-0.5573140031568705,0.17597387682041152
1789062383838177000,10.434177001953126,0.33394261627495286,-0.518456230039522,0.1411918652419932
1789062383848137700,10.4441376953125,0.2753986573696136,-0.48573962655831127,0.08755294004026799
1789062383858098000,10.454097900390625,0.2834744117975235,-0.5059163723422214,0.04580355540094897
1789062383868058600,10.46405859375,0.39444004733562466,-0.5734862625397742,0.006264942146278918
1789062383878018800,10.474018798828125,0.5110848975539207,-0.6360424527611583,0.03549560320787132
1789062383887979800,10.483979736328125,0.5305377860426902,-0.6622288872886448,0.09680606768447905
1789062383897939700,10.493939697265626,0.49185062025189397,-0.732595751260966,0.19177953138062728
1789062383907901000,10.50390087890625,0.505478163588047,-0.8242884579870849,0.24847411782592532
1789062383917860900,10.51386083984375,0.5054629660189152,-0.8216340710207819,0.22610196262327953
1789062383927821800,10.52382177734375,0.7360591895878315,-1.0434285639747978,0.26877189617361874
1789062383937782800,10.53378271484375,0.8466998309552669,-1.041277523420751,0.2166194466699846
1789062383947742700,10.54374267578125,0.8441039692431688,-1.036948115914315,0.20456927218576892
1789062383957704000,10.553703857421874,0.6608446663886308,-1.0562794238500297,0.21259868498761206
1789062383967663900,10.563663818359375,0.6606967823505401,-1.0530173533141611,0.21779574217405168
1789062383977624800,10.573624755859376,0.25893209121525285,-0.8539248137727379,0.08154784527341835
1789062383987584800,10.583584716796874,0.11635434283912181,-0.8164416169442236,0.08772099008355289
1789062383997545700,10.593545654296875,-0.13651800994575022,-0.8077380860067903,0.06336885831113905
1789062384007507000,10.6035068359375,-0.3974579338520765,-0.7345807145331055,-0.05012292557056062
1789062384017467000,10.613466796875,-0.59100189935565,-0.6917704043976962,-0.1694897572318092
1789062384027427600,10.623427490234375,-0.7017167750030756,-0.7021729212727398,-0.2931221647825092
1789062384037387800,10.6333876953125,-0.5604916102796793,-0.8097290406282991,-0.41663806981407103
1789062384047348700,10.6433486328125,-0.36988369822800155,-0.9854595554132014,-0.34230076784081753
1789062384057308700,10.65330859375,-0.23678864846825598,-1.157413182007894,-0.20731530122458933
1789062384067270000,10.663269775390624,-0.23882512273192405,-1.1295015311229972,-0.20259872103147208
1789062384077229800,10.673229736328125,0.049371641412377355,-1.2491773465350269,0.08041667668586597
1789062384087190800,10.683190673828125,0.15853344239890574,-1.163524650625512,0.05661894565951079
1789062384097151700,10.69315185546875,0.2525906132340431,-1.0397400847204028,0.011059793473687022
1789062384107111700,10.703111572265625,0.14684417364895344,-0.885477743769437,-0.013272592418640851
1789062384117073000,10.713072998046876,-0.35827626254260536,-0.5636377993509173,-0.07158692555287853
1789062384127032800,10.72303271484375,-0.9617506899803876,-0.07572868326641619,-0.10347064014021307
1789062384136993800,10.732993896484375,-1.2496329813480376,0.4472699759757146,-0.10695550484759732
1789062384146953700,10.74295361328125,-1.3554057244181632,0.7965121239196509,0.03302773352330551
1789062384156914700,10.752914794921875,-1.5039152009308336,1.1249965478539465,0.18728622028306124
1789062384166875000,10.762875,-1.3764350684434175,1.4468907066777348,0.2247175407938659
1789062384176835800,10.7728359375,-1.0027350267976523,1.6443233501829206,0.28826571946097534
1789062384186796800,10.782796875,-0.35137656615674495,1.6068093198247253,0.2744259216136299
1789062384196756700,10.7927568359375,0.18644144002199173,1.2517315610624848,0.31680465366505084
1789062384206717700,10.8027177734375,0.7585603597313165,0.9838869723342358,0.2930430168653838
1789062384216678000,10.812677978515625,1.2479670939624308,0.7971415809296071,0.29090715561416
1789062384226638800,10.822638916015626,1.4070377119779587,0.5628908534411341,0.2489112671341747
1789062384236598800,10.832598876953124,1.3076198908925056,0.4066310550626367,0.13972998512904158
1789062384246559700,10.842559814453125,0.8764350440055131,0.37111433600150046,0.05561427126214839
1789062384256520700,10.852520751953126,0.2492576694190502,0.39587767892330883,-0.044801374354772265
1789062384266480600,10.862480712890624,0.24809330181479453,0.3950498132644221,0.008123539092391729
1789062384276441900,10.87244189453125,-0.5401636925220489,0.4035310432206839,-0.12442107371035963
1789062384286401800,10.88240185546875,-0.7509300109833479,0.41188682016637174,-0.14029391175527126
1789062384296362800,10.89236279296875,-0.7028793890416621,0.41645653923470527,-0.11505422002598642
1789062384306322700,10.90232275390625,-0.5325929650068283,0.32366237407270815,-0.01925988666731864
1789062384316283600,10.91228369140625,-0.5337766218334437,0.33074849640876053,0.0013868512485176324
1789062384326243800,10.922243896484375,-0.5459048665225505,0.394197215023078,0.1344318147888407
1789062384336204800,10.932204833984375,-0.5132447059363127,0.49788219203371553,0.176441220337525
1789062384346166000,10.942166015625,-0.3972060049176216,0.5519842595014721,0.2796114892916754
1789062384356126000,10.9521259765625,-0.14637772518098355,0.5616839984020218,0.36571057726182044
1789062384366086700,10.962086669921876,-0.14617723417282102,0.5716388811074197,0.3501465129051357
1789062384376046800,10.972046875,0.6948124024420976,0.3271695054108277,0.35710221379455176
1789062384386007800,10.9820078125,0.9734446349054574,0.07984755329471081,0.2522963064625859
1789062384395967700,10.9919677734375,1.1649041953504085,-0.10277608200479298,0.1528987975127995
1789062384405929000,11.001928955078125,1.24412678514719,-0.24811284676548093,0.0778093619979918
1789062384415889000,11.011888916015625,1.2295230902552603,-0.39647140703275796,0.07156520691141485
1789062384425849600,11.021849609375,1.0204928018063306,-0.5130408904599025,0.13751184328868984
1789062384435810800,11.031810791015625,0.7191846271544694,-0.4825223815448582,0.20221304618213323
1789062384445770800,11.041770751953125,0.5009504570305348,-0.36940281937588004,0.2886289450164884
1789062384455732000,11.05173193359375,0.37438977747559543,-0.23318591126855462,0.3553430586349219
1789062384465692000,11.06169189453125,0.41065643812119956,-0.1837253494637087,0.4141819453662261
1789062384475652600,11.071652587890625,0.5844803886324167,-0.22305632958337662,0.3755396050978452
1789062384485612800,11.08161279296875,0.6934346843481063,-0.36586185883339495,0.3232232885356992
1789062384495573800,11.09157373046875,0.6658738927274942,-0.5344114856708795,0.23933056976972147
1789062384505535000,11.101534912109376,0.6551116756945848,-0.6588000088185072,0.12445413572974502
1789062384515495000,11.111494873046874,0.6892915931940078,-0.7714328469164669,0.07347478512609378
1789062384525455600,11.12145556640625,0.757438662225008,-0.7771456716053188,0.09703246031887829
1789062384535415800,11.131415771484376,0.7999895177066325,-0.7373702721863985,0.15310087768984956
1789062384545376800,11.141376708984374,0.7527636561512947,-0.6719486825965344,0.1612658265048638
1789062384555336700,11.151336669921875,0.7073632564574479,-0.6373493706412613,0.08956516577866859
1789062384565298000,11.1612978515625,0.778033706486225,-0.6851405379291623,0.008859689613524823
1789062384575258600,11.171258544921875,0.873583746227622,-0.7731405276171862,-0.050415971966693174
1789062384585218800,11.18121875,0.8367208732545375,-0.9096068073756992,-0.14294834438734688
1789062384595179800,11.1911796875,0.7188841829031706,-1.048561031492427,-0.19313195063658056
1789062384605139700,11.2011396484375,0.5811942065685987,-1.1520670717395842,-0.24220623480388892
1789062384615101000,11.211100830078125,0.5793798506230116,-1.129563125117123,-0.24473264800896866
1789062384625060900,11.221060791015624,0.24177462018728255,-1.3880799135297537,-0.3140742057878524
1789062384635021600,11.231021484375,-0.039164720174670216,-1.3456927241772412,-0.373611924970895
1789062384644981800,11.240981689453125,-0.36606326315701004,-1.2098000795882196,-0.5453743033098056
1789062384654942700,11.250942626953124,-0.8410334757566451,-1.0668895921263843,-0.7299789928913116
1789062384664904000,11.260904052734375,-1.3842834438562392,-0.8878530215334147,-0.8794559261966496
1789062384674863900,11.27086376953125,-1.818144231954217,-0.7160116962067783,-0.9342245312817394
1789062384684824800,11.280824951171875,-2.208947968614101,-0.6725922411970794,-0.8162109499935061
1789062384694784800,11.29078466796875,-2.4459967293232676,-0.6139832542315126,-0.582207657927461
1789062384704745700,11.300745849609376,-2.374202828222513,-0.5844022818949073,-0.1607750107806176
1789062384714705700,11.31070556640625,-1.7715116601169107,-0.5297914246547967,0.18002669587517156
1789062384724667000,11.3206669921875,-0.8870125521212816,-0.4817478169757873,0.36060043117385354
1789062384734627800,11.3306279296875,-0.22534780152142048,-0.47615145827345545,0.4096391508374363
1789062384744587800,11.340587890625,0.17798866897523402,-0.5640866390969604,0.4476961654985323
1789062384754548700,11.350548828125,0.22782325172424314,-0.5248560871444642,0.3944833750206977
1789062384764508700,11.3605087890625,0.04609247361123561,-0.21002909022793173,0.1559236069603823
1789062384774470000,11.370469970703125,-0.640286447006464,0.2494209702219814,-0.1926627622222528
1789062384784429800,11.380429931640625,-1.591049879026413,0.5932268088635057,-0.41309659781493246
1789062384794390800,11.390390869140624,-2.4879472808241845,0.8662339679867028,-0.33907362248785794
1789062384804351000,11.40035107421875,-3.3926369439333675,1.2866960530683398,-0.30513071034839373
1789062384814311700,11.410311767578126,-3.7945027573555707,1.7163839393958449,-0.17078271965179592
1789062384824273000,11.42027294921875,-3.5266374181002376,2.1226368818610903,0.02659181872429326
1789062384834232800,11.43023291015625,-3.526374967771768,2.128725261864066,-0.01577304919855669
1789062384844193800,11.44019384765625,-0.8137263666361569,1.808548428352177,0.49388088397048413
1789062384854154000,11.450154052734375,0.47796121110916134,1.3419079449415205,0.6074807404696941
1789062384864114700,11.46011474609375,1.6012264051258562,0.7065374731577932,0.6560265255171805
1789062384874075100,11.4700751953125,2.291347434881329,0.13326821436956524,0.6711528560437262
1789062384884036000,11.4800361328125,2.5044050791502,-0.2414219342920929,0.5032599395493045
1789062384893997300,11.489997314453126,2.3203759609669445,-0.4068354915935546,0.297366195560433
1789062384903957200,11.499957275390624,1.6293898388147354,-0.32277700607292353,0.024133977243397383
1789062384913918200,11.509918212890625,0.825220405074954,-0.11948387303650379,-0.25242736723003906
1789062384923878100,11.519878173828126,0.2639589794665575,0.06386120840534568,-0.36048655900321896
1789062384933839000,11.529839111328124,-0.023999299746751784,0.25845490215755995,-0.4073393859950825
1789062384943799300,11.53979931640625,-0.09129413586258887,0.4117535857081413,-0.3152398155011236
1789062384953760300,11.54976025390625,-0.04072013292312622,0.5235545030266047,-0.16630866124397142
1789062384963720200,11.55972021484375,0.0731195967465639,0.5965628214184194,-0.06288505684956908
1789062384973681200,11.56968115234375,0.33921091206669807,0.6495526533279568,-0.05765006053922698
1789062384983642000,11.57964208984375,0.8158259692639112,0.6266688405424357,-0.13019725509216076
1789062384993602300,11.589602294921875,1.2830378228217363,0.41567828487120567,-0.14584086922477
1789062385003563300,11.599563232421875,1.6171867753237485,0.12094590841308235,-0.15321240263977087
1789062385013523200,11.609523193359376,1.8848633140087128,-0.1367971922133118,-0.19456313421716911
1789062385023484200,11.619484130859375,2.073898277655244,-0.320418752508983,-0.2363886163000017
1789062385033444000,11.629444091796875,2.186669501310587,-0.46452356432192027,-0.2282765849823132
1789062385043405000,11.639405029296874,2.152905178874731,-0.5704542013674974,-0.23479349259566515
1789062385053366300,11.6493662109375,2.1150053640693427,-0.68501216230914,-0.29016718743443487
1789062385063326200,11.659326171875,1.9910177498728037,-0.8031063345529138,-0.2097125898909755
1789062385073287200,11.669287109375,1.7508821290642023,-0.8025469471044838,-0.16385255506243557
1789062385083247000,11.6792470703125,1.4988731151103973,-0.6497063095197081,-0.1798250358232297
1789062385093208000,11.6892080078125,1.2865186506748199,-0.5424716772034764,-0.1987207653532736
1789062385103168300,11.699168212890624,1.166387711906433,-0.5330063681133091,-0.1620290842286311
1789062385113129200,11.709129150390625,1.0346966837257145,-0.595915244229883,-0.13711798513289541
1789062385123090200,11.719090087890624,0.8488169692397117,-0.6587798428133129,-0.14178155649714172
1789062385133050000,11.729050048828125,0.6590519377529621,-0.6625669601365923,-0.15109833309524692
1789062385143011000,11.739010986328125,0.5898562364518642,-0.6886036109298467,-0.1250382740269415
1789062385152971300,11.74897119140625,0.5079851779729128,-0.7031186046250164,-0.09846106834989041
1789062385162932200,11.75893212890625,0.3823258311718702,-0.7048048041462898,-0.06616658100457862
1789062385172892200,11.76889208984375,0.20806641185283659,-0.6400552685990929,-0.08911546751610003
1789062385182853000,11.77885302734375,0.2102799962490797,-0.6587936521429568,-0.08853168541193007
1789062385192813000,11.78881298828125,-0.3016881138801574,-0.43990496363304554,-0.15871838877806438
1789062385202774000,11.79877392578125,-0.46351825973689553,-0.365003086579591,-0.17680148675097151
1789062385212735200,11.8087353515625,-0.44301849254369735,-0.415545306141302,-0.12094133270266465
1789062385222695200,11.818695068359375,-0.25959903069138524,-0.542834738362208,-0.04952152561130933
1789062385232656100,11.82865625,-0.26075404594540597,-0.5334017241064459,-0.06768246089366729
1789062385242616000,11.838615966796874,0.2562906367957592,-0.8617373872198164,-0.0007569238811032846
1789062385252577000,11.848576904296875,0.28929157364368435,-1.023608230413124,-0.07044502550875768
1789062385262537200,11.858537109375,0.16670973459184169,-1.0984353617299347,-0.16848545729378236
1789062385272498200,11.868498291015625,-0.016317513072490693,-1.1257538690272717,-0.2249681728203781
1789062385282459100,11.878459228515625,-0.018277999490499495,-1.10941034473069,-0.21167267445018514
1789062385292419000,11.888419189453124,-0.4827876083523035,-0.9702677584350109,-0.260714554185234
1789062385302380000,11.898380126953125,-0.5870563766002654,-0.7561087287954986,-0.2624778923296369
1789062385312340200,11.90834033203125,-0.6930050607591867,-0.6282065715037286,-0.2265523915382102
1789062385322301200,11.91830126953125,-0.7870780136853456,-0.6171756205320358,-0.19074125610776244
1789062385332261000,11.92826123046875,-0.7110311313152313,-0.75731810458526,-0.010193645055958768
1789062385342222300,11.938222412109376,-0.409465767031908,-0.9625656596250831,0.1763898189438507
1789062385352183000,11.94818310546875,-0.05410919132828712,-1.0323678023867309,0.22860442869719116
1789062385362143200,11.958143310546875,0.13659049066007137,-0.9368582407861947,0.09563516987473704
1789062385372104200,11.968104248046876,-0.02644844646453857,-0.8472009123452007,-0.12978403464877045
1789062385382064000,11.978064208984375,-0.5411749153912067,-0.7551239555418491,-0.3177784671332687
1789062385392025300,11.988025390625,-1.2607196080297232,-0.5223398665398359,-0.44020675959121436
1789062385401985300,11.9979853515625,-1.7170827353149651,-0.06015789690800011,-0.5562463373927399
1789062385411946000,12.007946044921875,-2.000883310326934,0.4273709876872599,-0.4906721510570496
1789062385421906200,12.01790625,-2.3165409128487107,0.8917182455942034,-0.37402507234904914
1789062385431867100,12.0278671875,-2.6718343601882455,1.3863061818554996,-0.2793525095619261
1789062385441828400,12.037828369140625,-2.9147680872827766,1.9763404052227735,-0.24733709488632155
1789062385451788300,12.047788330078125,-2.9401398444265125,2.5013114970490333,-0.2601321511873975
1789062385461749000,12.0577490234375,-2.40917769549191,2.69610896974504,-0.17390457799937575
1789062385471709200,12.067709228515625,-1.3325649470567702,2.4856679377153514,-0.004493772321869619
1789062385481670100,12.077670166015626,-0.12864450009167194,1.899758685323596,0.21928249186677856
1789062385491630000,12.087630126953124,-0.1295738898962736,1.9065125434979795,0.14443129468779078
1789062385501591300,12.09759130859375,1.645095941990614,0.8520262866750359,0.28107489464143287
1789062385511552000,12.107552001953126,2.028376297408342,0.3639537236571312,0.2353639676936902
1789062385521512200,12.11751220703125,1.978909378927946,-0.02916742309965193,0.09765251017967239
1789062385531473200,12.12747314453125,1.6350351512253283,-0.19698658023811877,-0.07371716991406865
1789062385541433000,12.13743310546875,0.952773602798581,-0.12265724237561225,-0.3334154505956918
1789062385551394300,12.147394287109375,0.3377922774404287,0.07256568919084966,-0.5376579933114349
1789062385561354200,12.157354248046875,-0.06458323906958102,0.24242263576723633,-0.6086182931322605
1789062385571315000,12.16731494140625,-0.3091156335324049,0.2852002126768231,-0.6019351255739107
1789062385581276200,12.177276123046875,-0.310723068729043,0.30065599435344337,-0.5839798917643726
1789062385591236000,12.187236083984375,-0.07331365801393985,0.19787972968555986,-0.3562026346063241
1789062385601197300,12.197197265625,0.4072451683729887,0.2110590908627957,-0.21946570294657722
1789062385611157200,12.2071572265625,0.973031377929449,0.22349618230536578,-0.05054647104514297
1789062385621118000,12.217117919921876,1.3956407041728496,0.17382095483653245,0.0982989731233567
1789062385631078100,12.227078125,1.395817229783535,0.17178659946471453,0.07474322502617724
1789062385641039000,12.2370390625,1.7370903350770472,-0.02808868795223534,0.19850483931396157
1789062385650999000,12.2469990234375,1.8579501726418732,-0.06930033071935177,0.17186810373570768
1789062385660960300,12.256960205078125,1.9704975244134664,-0.1458604233086109,0.1132975125517696
1789062385670921000,12.2669208984375,1.9956734667241571,-0.23911964869908986,0.07120810970258899
1789062385680881200,12.276881103515626,1.9940274530827997,-0.22315189891234039,0.07336829711089377
1789062385690842000,12.286842041015625,1.6213263593465088,-0.5013648099850863,-0.013797721404442563
1789062385700802000,12.296802001953125,1.2658341745644808,-0.5481876436974853,-0.08116991533911787
1789062385710763300,12.30676318359375,0.9402075512140988,-0.5084907894074917,-0.15113580642826854
1789062385720723200,12.31672314453125,0.7287298696130514,-0.4441241156980395,-0.21430472172051668
1789062385730684200,12.32668408203125,0.5912146653234959,-0.4001751569215208,-0.236211268705409
1789062385740645000,12.33664501953125,0.41065760716497895,-0.3529209460545331,-0.2673657374364324
1789062385750605000,12.34660498046875,0.41166941455602646,-0.3627104455977678,-0.2699027268344536
1789062385760566300,12.356566162109376,0.1932084499388933,-0.2934303539488464,-0.3484916583701968
1789062385770526200,12.366526123046874,0.046702129942178726,-0.276280116379261,-0.3850612109525129
1789062385780487200,12.376487060546875,-0.021106500914692877,-0.2741163624741137,-0.34298674081098285
1789062385790447400,12.386447265625,0.014868483307957649,-0.31822621090076864,-0.2886671946676448
1789062385800408000,12.396407958984375,0.1033446391403675,-0.37075164016894996,-0.22794965458288788
1789062385810369300,12.406369384765625,0.22535247769653796,-0.4556883698288351,-0.23410087068900465
1789062385820329200,12.4163291015625,0.4314829530507326,-0.5410375527471304,-0.2257546470229514
1789062385830290200,12.426290283203125,0.7262199326187372,-0.630920360507071,-0.17969887042660265
1789062385840250400,12.43625048828125,1.0393436327487229,-0.7661047106962651,-0.13407445271853358
