time,seconds_elapsed,z,y,x
1789062373479214800,0.07521484375,0.009211679920554161,-0.01587371528148651,-0.018710099160671234
1789062373489174800,0.0851748046875,0.016662966459989548,-0.02803036756813526,-0.026874955743551254
1789062373499136000,0.095135986328125,0.030290627852082253,-0.04197734221816063,-0.03845038264989853
1789062373509096000,0.105095947265625,0.04866268113255501,-0.05527784675359726,-0.056994639337062836
1789062373519057000,0.115056884765625,0.06672264635562897,-0.04969266802072525,-0.0692014992237091
1789062373529017000,0.12501708984375,0.07616620510816574,-0.03136913478374481,-0.07392160594463348
1789062373538977800,0.134977783203125,0.06475749611854553,-0.014284156262874603,-0.07213089615106583
1789062373548937700,0.144937744140625,0.037684883922338486,-0.026543663814663887,-0.06636719405651093
1789062373558899000,0.15489892578125,0.020359158515930176,-0.03876437619328499,-0.05556727573275566
1789062373568859000,0.16485888671875,0.01272467989474535,-0.02918091043829918,-0.03499523550271988
1789062373578820000,0.174820068359375,0.015384645201265812,-0.02820592373609543,-0.015229785814881325
1789062373588780000,0.184780029296875,0.01608048565685749,-0.05026181787252426,-0.0019138639327138662
1789062373598740700,0.19474072265625,0.009322715923190117,-0.06721284240484238,0.0005074823275208473
1789062373608701000,0.204700927734375,0.006191910244524479,-0.06794483214616776,-0.007420413661748171
1789062373618662000,0.214661865234375,0.01723417453467846,-0.045430734753608704,-0.018985191360116005
1789062373628621800,0.224621826171875,0.03526218980550766,-0.004910546820610762,-0.03407280892133713
1789062373638583000,0.2345830078125,0.049671221524477005,0.007929351180791855,-0.05359644442796707
1789062373648543000,0.24454296875,0.05841333046555519,-0.00376087985932827,-0.07193708419799805
1789062373658504000,0.25450390625,0.0650147795677185,-0.018550746142864227,-0.06876738369464874
1789062373668463900,0.2644638671875,0.07605461776256561,-0.015723438933491707,-0.0474700927734375
1789062373678424800,0.2744248046875,0.08730673789978027,-0.00020812894217669964,-0.010680388659238815
1789062373688385000,0.284385009765625,0.0849732905626297,0.008104696869850159,0.01987411640584469
1789062373698346000,0.294345947265625,0.07455021142959595,0.006881507113575935,0.04051361232995987
1789062373708306000,0.304305908203125,0.06146879866719246,-0.0021831595804542303,0.04765450954437256
1789062373718267000,0.314266845703125,0.05069764703512192,-0.02351081743836403,0.04525260627269745
1789062373728226800,0.324226806640625,0.0445699468255043,-0.04183564335107803,0.053386569023132324
1789062373738188000,0.33418798828125,0.042238082736730576,-0.06968751549720764,0.07546523958444595
1789062373748148000,0.34414794921875,0.03887533023953438,-0.10017351061105728,0.11134219169616699
1789062373758109000,0.35410888671875,0.04365543648600578,-0.1129862442612648,0.14856652915477753
1789062373768069000,0.364069091796875,0.05779546499252319,-0.1009610965847969,0.17897547781467438
1789062373778029800,0.37402978515625,0.05941813066601753,-0.0909004732966423,0.19314882159233093
1789062373787989800,0.38398974609375,0.04866214841604233,-0.09651822596788406,0.1847599297761917
1789062373797951000,0.393950927734375,0.02797524817287922,-0.11411985754966736,0.1551429182291031
1789062373807911000,0.403910888671875,0.012822117656469345,-0.12604965269565582,0.10781338810920715
1789062373817872000,0.413871826171875,0.009162135422229767,-0.1186404675245285,0.06162538006901741
1789062373827832000,0.42383203125,0.0029806874226778746,-0.09106825292110443,0.024427171796560287
1789062373837792800,0.433792724609375,-0.013343424536287785,-0.05764824151992798,0.002568211406469345
1789062373847752700,0.443752685546875,-0.023555586114525795,-0.025274379178881645,-0.010290896520018578
1789062373857714200,0.453714111328125,-0.01954513043165207,0.008630855940282345,-0.010150814428925514
1789062373867674000,0.463674072265625,-0.004028985742479563,0.04887174069881439,0.0029862248338758945
1789062373877635000,0.473635009765625,0.00876164436340332,0.08886922150850296,0.02701912447810173
1789062373887595300,0.48359521484375,0.018652629107236862,0.11934356391429901,0.05370642989873886
1789062373897556000,0.493555908203125,0.030301827937364578,0.13132299482822418,0.0809609517455101
1789062373907517200,0.50351708984375,0.040879860520362854,0.11455430090427399,0.09825605154037476
1789062373917477000,0.51347705078125,0.03964149206876755,0.06991039961576462,0.10310938954353333
1789062373927438000,0.52343798828125,0.024754971265792847,0.013625329360365868,0.09361714869737625
1789062373937398300,0.533398193359375,-0.0003546424559317529,-0.024920465424656868,0.07735589146614075
1789062373947359000,0.54335888671875,-0.020023677498102188,-0.028436262160539627,0.05962063744664192
1789062373957319000,0.55331884765625,-0.02466476708650589,-0.015303149819374084,0.0429987832903862
1789062373967280000,0.563280029296875,-0.01354951597750187,0.015242463909089565,0.03716660290956497
1789062373977240000,0.573239990234375,0.0232191514223814,0.09502357989549637,0.04937772825360298
1789062373987201000,0.583200927734375,0.07111608237028122,0.17870588600635529,0.06115507706999779
1789062373997161200,0.5931611328125,0.12340245395898819,0.20583072304725647,0.05812413617968559
1789062374007122000,0.603121826171875,0.15655241906642914,0.17878463864326477,0.03298717364668846
1789062374017081900,0.613081787109375,0.1493498980998993,0.11487890034914017,0.0014223228208720684
1789062374027043000,0.62304296875,0.11746814846992493,0.03970908001065254,-0.030384816229343414
1789062374037003000,0.6330029296875,0.08518024533987045,-0.03461788222193718,-0.049285002052783966
1789062374046964200,0.642964111328125,0.08396928757429123,-0.062025036662817,-0.03373859450221062
1789062374056924200,0.652924072265625,0.10748553276062012,-0.01460346207022667,0.026570819318294525
1789062374066885000,0.662885009765625,0.13843706250190735,0.08668196201324463,0.09920766204595566
1789062374076845000,0.672844970703125,0.19556985795497894,0.22899729013442993,0.1727796047925949
1789062374086806000,0.682805908203125,0.27244916558265686,0.33797600865364075,0.21431371569633484
1789062374096766000,0.692765869140625,0.3409877419471741,0.36810967326164246,0.2220778912305832
1789062374106727200,0.70272705078125,0.3744299113750458,0.35059213638305664,0.20075057446956635
1789062374116687000,0.71268701171875,0.3677789270877838,0.2471541464328766,0.13741686940193176
1789062374126648000,0.72264794921875,0.2990560233592987,0.0826764702796936,0.04706865921616554
1789062374136608000,0.73260791015625,0.1918260008096695,-0.12099436670541763,-0.05506729334592819
1789062374146569000,0.74256884765625,0.09051432460546494,-0.31602153182029724,-0.15316298604011536
1789062374156529200,0.752529052734375,0.011185942217707634,-0.44528284668922424,-0.23736360669136047
1789062374166490000,0.762489990234375,-0.058931682258844376,-0.49131715297698975,-0.31171929836273193
1789062374176450000,0.772449951171875,-0.12516877055168152,-0.45976027846336365,-0.3870769143104553
1789062374186411300,0.782411376953125,-0.1627642959356308,-0.31359344720840454,-0.44274818897247314
1789062374196371200,0.79237109375,-0.1499861776828766,-0.08764393627643585,-0.4721071422100067
1789062374206332000,0.802331787109375,-0.07947395741939545,0.14440050721168518,-0.4811491370201111
1789062374216293000,0.812293212890625,0.020365023985505104,0.3334716260433197,-0.4711662828922272
1789062374226253000,0.822253173828125,0.12060853093862534,0.4420320689678192,-0.43765631318092346
1789062374236214300,0.83221435546875,0.20058485865592957,0.46475574374198914,-0.3837858736515045
1789062374246174200,0.84217431640625,0.25847986340522766,0.4106777608394623,-0.3059953451156616
1789062374256135000,0.852135009765625,0.2948663830757141,0.31399035453796387,-0.21793101727962494
1789062374266095000,0.86209521484375,0.31491619348526,0.18810126185417175,-0.12312784790992737
1789062374276056000,0.87205615234375,0.32272645831108093,0.04995456337928772,-0.02974650263786316
1789062374286016000,0.88201611328125,0.319316029548645,-0.07276958227157593,0.04975765570998192
1789062374295977200,0.891977294921875,0.30404573678970337,-0.17446106672286987,0.10838927328586578
1789062374305937200,0.901937255859375,0.2837098240852356,-0.2568291127681732,0.1370006948709488
1789062374315898000,0.911898193359375,0.26261359453201294,-0.28870925307273865,0.14440640807151794
1789062374325858000,0.921858154296875,0.2452647089958191,-0.28184229135513306,0.13382087647914886
1789062374335819000,0.931819091796875,0.22656293213367462,-0.24694211781024933,0.11401361227035522
1789062374345779200,0.941779296875,0.19593897461891174,-0.20630811154842377,0.0883353054523468
1789062374355740200,0.951740234375,0.14938345551490784,-0.17625832557678223,0.06300624459981918
1789062374365700000,0.9617001953125,0.09009379148483276,-0.1695467084646225,0.045129258185625076
1789062374375661000,0.9716611328125,0.02257440984249115,-0.1707794964313507,0.04110761731863022
1789062374385621000,0.98162109375,-0.03165585547685623,-0.13693241775035858,0.049371667206287384
1789062374395582200,0.991582275390625,-0.06099536642432213,-0.0932973176240921,0.0649610161781311
1789062374405542100,1.001542236328125,-0.07336332648992538,-0.07094132155179977,0.08481097966432571
1789062374415503000,1.011503173828125,-0.0745023563504219,-0.06511219590902328,0.10510479658842087
1789062374425463000,1.021463134765625,-0.08321434259414673,-0.0698753297328949,0.12840105593204498
1789062374435424000,1.031424072265625,-0.10529487580060959,-0.08523484319448471,0.14701709151268005
1789062374445384000,1.041384033203125,-0.13960546255111694,-0.09988008439540863,0.1540195792913437
1789062374455345200,1.05134521484375,-0.17538556456565857,-0.10603518784046173,0.1392187923192978
1789062374465305000,1.06130517578125,-0.20467685163021088,-0.10330122709274292,0.10740214586257935
1789062374475266000,1.07126611328125,-0.22218766808509827,-0.09606834501028061,0.06376438587903976
1789062374485226200,1.081226318359375,-0.2276519536972046,-0.09182699769735336,0.025084905326366425
1789062374495187000,1.09118701171875,-0.22312723100185394,-0.08773185312747955,0.009044952690601349
1789062374505147000,1.10114697265625,-0.21839982271194458,-0.07843037694692612,0.021307192742824554
1789062374515108000,1.111108154296875,-0.21987442672252655,-0.07719360291957855,0.06675457209348679
1789062374525069000,1.121069091796875,-0.23453940451145172,-0.08106576651334763,0.12636438012123108
1789062374535029200,1.131029296875,-0.26255375146865845,-0.0973251685500145,0.1722104400396347
1789062374544990000,1.140989990234375,-0.2999647855758667,-0.16425487399101257,0.17755043506622314
1789062374554950000,1.150949951171875,-0.3449026942253113,-0.2836771309375763,0.14554937183856964
1789062374564911000,1.1609111328125,-0.4003281891345978,-0.4147379398345947,0.08101839572191238
1789062374574871000,1.17087109375,-0.4653220772743225,-0.526042103767395,0.0007427302189171314
1789062374584832300,1.180832275390625,-0.5265166759490967,-0.574780285358429,-0.08006796985864639
1789062374594792200,1.190792236328125,-0.5678861737251282,-0.5715206265449524,-0.14500409364700317
1789062374604753000,1.2007529296875,-0.5782634615898132,-0.4856114685535431,-0.19583995640277863
1789062374614713000,1.210713134765625,-0.558331310749054,-0.3433981239795685,-0.22288435697555542
1789062374624674000,1.220674072265625,-0.5183530449867249,-0.15086403489112854,-0.23600973188877106
1789062374634634000,1.230634033203125,-0.4615424573421478,0.04140714183449745,-0.23248396813869476
1789062374644595200,1.24059521484375,-0.4010131061077118,0.19285428524017334,-0.22003458440303802
1789062374654555100,1.25055517578125,-0.3331834673881531,0.2709469497203827,-0.18950463831424713
1789062374664516000,1.26051611328125,-0.2682760953903198,0.31447234749794006,-0.12591901421546936
1789062374674476000,1.27047607421875,-0.20672805607318878,0.33965545892715454,-0.02441689372062683
1789062374684437000,1.28043701171875,-0.15439771115779877,0.36862751841545105,0.09773692488670349
1789062374694397000,1.29039697265625,-0.09152287244796753,0.3598284125328064,0.24651946127414703
1789062374704358100,1.300358154296875,-0.05564584210515022,0.34939610958099365,0.3905026316642761
1789062374714318000,1.310318115234375,-0.049275826662778854,0.2791096866130829,0.49241942167282104
1789062374724279000,1.320279052734375,-0.06823273748159409,0.15349030494689941,0.5374107956886292
1789062374734239000,1.330239013671875,-0.11342284828424454,-0.013090429827570915,0.513217568397522
1789062374744200000,1.340199951171875,-0.17871980369091034,-0.2235620766878128,0.41962748765945435
1789062374754161200,1.3501611328125,-0.26255157589912415,-0.44025444984436035,0.27811989188194275
1789062374764121000,1.36012109375,-0.348598837852478,-0.5749897360801697,0.12805992364883423
1789062374774082300,1.370082275390625,-0.41153866052627563,-0.5867550373077393,-0.00513807637616992
1789062374784042200,1.380042236328125,-0.4535242021083832,-0.543120265007019,-0.11859223991632462
1789062374794003000,1.3900029296875,-0.46655184030532837,-0.4499163031578064,-0.19567929208278656
1789062374803963100,1.399963134765625,-0.44642317295074463,-0.30880725383758545,-0.23162491619586945
1789062374813924000,1.409924072265625,-0.3993872106075287,-0.16050273180007935,-0.2368316501379013
1789062374823884000,1.419884033203125,-0.3417026400566101,-0.028730733320116997,-0.2230941355228424
1789062374833845200,1.42984521484375,-0.2725406289100647,0.09167078137397766,-0.19691020250320435
1789062374843805200,1.43980517578125,-0.1904153823852539,0.18292845785617828,-0.1639581173658371
1789062374853766000,1.449765869140625,-0.11017300933599472,0.20184434950351715,-0.12571166455745697
1789062374863726000,1.45972607421875,-0.03948737680912018,0.17915356159210205,-0.07651221007108688
1789062374873687300,1.469687255859375,0.0064225876703858376,0.14837993681430817,-0.019486211240291595
1789062374883647200,1.479647216796875,0.03228430822491646,0.09293700009584427,0.030586373060941696
1789062374893608200,1.489608154296875,0.04548666253685951,0.029510891065001488,0.06379013508558273
1789062374903568400,1.499568359375,0.04299793392419815,-0.02201201021671295,0.07590214908123016
1789062374913529000,1.509529052734375,0.036877721548080444,-0.06409022212028503,0.06578027456998825
1789062374923489000,1.519489013671875,0.02428869716823101,-0.09758530557155609,0.029435202479362488
1789062374933450200,1.5294501953125,-0.00399540551006794,-0.13793832063674927,-0.022636253386735916
1789062374943410200,1.53941015625,-0.03360661491751671,-0.1877918392419815,-0.09020312130451202
1789062374953371100,1.54937109375,-0.04812537133693695,-0.23650558292865753,-0.1525905877351761
1789062374963331300,1.559331298828125,-0.04831656068563461,-0.2651645243167877,-0.1963101476430893
1789062374973292000,1.5692919921875,-0.0504782497882843,-0.2694399654865265,-0.2174689620733261
1789062374983253200,1.579253173828125,-0.05705968663096428,-0.25353121757507324,-0.22799819707870483
1789062374993213200,1.589213134765625,-0.05278691276907921,-0.2178400754928589,-0.22070352733135223
1789062375003174100,1.599174072265625,-0.03531099483370781,-0.16951046884059906,-0.20734572410583496
1789062375013134300,1.60913427734375,-0.0040361606515944,-0.13850407302379608,-0.18991480767726898
1789062375023095000,1.619094970703125,0.03567128628492355,-0.13627520203590393,-0.16173961758613586
1789062375033055000,1.629054931640625,0.07639848440885544,-0.12303664535284042,-0.11311561614274979
1789062375043016200,1.63901611328125,0.11867962777614594,-0.08847460895776749,-0.045308034867048264
1789062375052976000,1.64897607421875,0.1562991738319397,-0.04089244455099106,0.02934037148952484
1789062375062937300,1.658937255859375,0.18792210519313812,0.0012542740441858768,0.09038422256708145
1789062375072897300,1.668897216796875,0.21804697811603546,0.031290203332901,0.12398479878902435
1789062375082858000,1.67885791015625,0.2478104531764984,0.04988174885511398,0.12976036965847015
1789062375092818200,1.688818115234375,0.2751651108264923,0.056221671402454376,0.11724884063005447
1789062375102779100,1.698779052734375,0.2880761921405792,0.05389704182744026,0.0932508036494255
1789062375112739000,1.708739013671875,0.2879667282104492,0.06350812315940857,0.07170210778713226
1789062375122700300,1.7187001953125,0.2808549702167511,0.08110646158456802,0.058490414172410965
1789062375132660200,1.72866015625,0.2698252201080322,0.09530510753393173,0.053868766874074936
1789062375142621200,1.73862109375,0.2504315674304962,0.09946063160896301,0.049658212810754776
1789062375152581000,1.7485810546875,0.21040931344032288,0.08907350152730942,0.04191320762038231
1789062375162542000,1.7585419921875,0.15834452211856842,0.05548777058720589,0.021760614588856697
1789062375172503300,1.76850341796875,0.1053934171795845,0.0052637457847595215,-0.008353346027433872
1789062375182463200,1.778463134765625,0.07000317424535751,-0.04407750070095062,-0.03590236231684685
1789062375192424000,1.788423828125,0.051592741161584854,-0.10805355757474899,-0.0430886372923851
1789062375202384100,1.798384033203125,0.0362742580473423,-0.16230088472366333,-0.018511664122343063
1789062375212345000,1.808344970703125,0.018469424918293953,-0.19933773577213287,0.020247450098395348
1789062375222305000,1.818304931640625,0.01030337531119585,-0.21794098615646362,0.06166946142911911
1789062375232266200,1.828266357421875,0.01815730333328247,-0.21080264449119568,0.09930791705846786
1789062375242226200,1.83822607421875,0.031112540513277054,-0.18008174002170563,0.1229468509554863
1789062375252187100,1.848187255859375,0.04685661569237709,-0.14606785774230957,0.13533426821231842
1789062375262147000,1.85814697265625,0.05962137132883072,-0.1101875752210617,0.14481399953365326
1789062375272108000,1.86810791015625,0.07847149670124054,-0.06243310123682022,0.1599748432636261
1789062375282068200,1.878068115234375,0.09561511874198914,-0.0049198223277926445,0.17678651213645935
1789062375292029200,1.888029296875,0.08191955089569092,0.03964844346046448,0.16852031648159027
1789062375301989000,1.897989013671875,0.014692015014588833,0.0666842833161354,0.1210201233625412
1789062375311950000,1.9079501953125,-0.07351054251194,0.09655776619911194,0.04094605892896652
1789062375321910000,1.917909912109375,-0.15304723381996155,0.12993142008781433,-0.06250771135091782
1789062375331871200,1.927871337890625,-0.20619674026966095,0.1345093846321106,-0.17150504887104034
1789062375341831200,1.9378310546875,-0.25498101115226746,0.03465622663497925,-0.2938361167907715
1789062375351792000,1.947792236328125,-0.3267976641654968,-0.1521139293909073,-0.4121774137020111
1789062375361753300,1.95775341796875,-0.41225552558898926,-0.3822544515132904,-0.513826847076416
1789062375371713300,1.96771337890625,-0.46187928318977356,-0.5734604001045227,-0.5566906929016113
1789062375381674000,1.977674072265625,-0.451047420501709,-0.6309085488319397,-0.5201030373573303
1789062375391634200,1.98763427734375,-0.3456459045410156,-0.5053822994232178,-0.3968024253845215
1789062375401595100,1.99759521484375,-0.15889784693717957,-0.2460319846868515,-0.19209028780460358
1789062375411555000,2.00755517578125,0.0578828826546669,0.07866067439317703,0.060996126383543015
1789062375421516300,2.017516357421875,0.24426762759685516,0.3926406502723694,0.3100138306617737
1789062375431476200,2.027476318359375,0.39653652906417847,0.6509808301925659,0.503740668296814
1789062375441437200,2.037437255859375,0.5393975973129272,0.8596228361129761,0.6173344850540161
1789062375451397000,2.047397216796875,0.6541694402694702,0.9767683744430542,0.6440760493278503
1789062375461358000,2.057358154296875,0.7012679576873779,0.9777878522872925,0.5862195491790771
1789062375471318300,2.067318359375,0.6853231191635132,0.8650871515274048,0.4724392294883728
1789062375481279200,2.077279296875,0.6502543091773987,0.6694817543029785,0.3191395103931427
1789062375491239200,2.0872392578125,0.6029046773910522,0.42552050948143005,0.17688141763210297
1789062375501200100,2.0972001953125,0.52567058801651,0.16588924825191498,0.0664667934179306
1789062375511160000,2.10716015625,0.43880173563957214,-0.07593083381652832,0.010509246960282326
1789062375521121300,2.117121337890625,0.3472164273262024,-0.2368471622467041,0.0034284787252545357
1789062375531082200,2.127082275390625,0.25619998574256897,-0.331108421087265,0.030598847195506096
1789062375541042200,2.137042236328125,0.17697730660438538,-0.3606787323951721,0.05375770479440689
1789062375551003100,2.147003173828125,0.12337186932563782,-0.355345219373703,0.05996047332882881
1789062375560963000,2.156963134765625,0.10891412943601608,-0.32322317361831665,0.049023617058992386
1789062375570924300,2.16692431640625,0.12697702646255493,-0.26359686255455017,0.04127701371908188
1789062375580884200,2.17688427734375,0.15526720881462097,-0.1783474236726761,0.043233998119831085
1789062375590845200,2.18684521484375,0.1767011284828186,-0.10367745161056519,0.05017952248454094
1789062375600805400,2.196805419921875,0.18057505786418915,-0.04353976994752884,0.050133638083934784
1789062375610766000,2.20676611328125,0.18293675780296326,0.013605007901787758,0.03670598194003105
1789062375620726000,2.21672607421875,0.18973229825496674,0.05914057046175003,0.0036457055248320103
1789062375630687200,2.226687255859375,0.1991598904132843,0.09479070454835892,-0.039179522544145584
1789062375640647200,2.236647216796875,0.20730805397033691,0.1276371330022812,-0.06980258971452713
1789062375650608000,2.246608154296875,0.1999630481004715,0.16263079643249512,-0.07253232598304749
1789062375660568300,2.256568359375,0.18027512729167938,0.18233993649482727,-0.04843990132212639
1789062375670529000,2.266529052734375,0.1643398404121399,0.14348815381526947,-0.021638115867972374
1789062375680489000,2.276489013671875,0.15526215732097626,0.06094077229499817,0.0018751360476016998
1789062375690450200,2.2864501953125,0.13382957875728607,-0.04102953523397446,0.016247950494289398
1789062375700411100,2.2964111328125,0.0937463790178299,-0.14419281482696533,0.011995399370789528
1789062375710371300,2.306371337890625,0.041437096893787384,-0.21365337073802948,-0.0010463674552738667
1789062375720332000,2.31633203125,0.007478339597582817,-0.23918426036834717,-0.011520277708768845
1789062375730292000,2.3262919921875,-0.008030046708881855,-0.20228828489780426,-0.006389963906258345
1789062375740253200,2.336253173828125,-0.002602552529424429,-0.1116042286157608,0.02011055499315262
1789062375750213000,2.346213134765625,0.014567378908395767,-0.02770346961915493,0.052951328456401825
1789062375760174300,2.35617431640625,0.022634344175457954,0.022281473502516747,0.07891635596752167
1789062375770134300,2.36613427734375,0.014497321099042892,0.0351669117808342,0.0942084938287735
1789062375780095000,2.376094970703125,-0.002902434440329671,0.05439421907067299,0.10466025769710541
1789062375790055200,2.38605517578125,-0.013631777837872505,0.08921771496534348,0.11597549915313721
1789062375800016100,2.39601611328125,-0.009302538819611073,0.09921953082084656,0.13061733543872833
1789062375809976000,2.40597607421875,0.002551191719248891,0.09382716566324234,0.16627013683319092
1789062375819937300,2.415937255859375,0.009731611236929893,0.07564209401607513,0.22118641436100006
1789062375829897200,2.425897216796875,-0.0032417112961411476,0.028649818152189255,0.27367037534713745
1789062375839858200,2.435858154296875,-0.035813722759485245,-0.037448544055223465,0.31094804406166077
1789062375849819100,2.445819091796875,-0.08064377307891846,-0.1018991693854332,0.31955885887145996
1789062375859778600,2.455778564453125,-0.13514405488967896,-0.1619453728199005,0.2913731634616852
1789062375869739800,2.46573974609375,-0.19206832349300385,-0.2066372036933899,0.24034807085990906
1789062375879699700,2.47569970703125,-0.24168436229228973,-0.21660830080509186,0.18760082125663757
1789062375889660700,2.48566064453125,-0.280269056558609,-0.19577385485172272,0.16168959438800812
1789062375899620900,2.495620849609375,-0.3022870123386383,-0.15431822836399078,0.16177776455879211
1789062375909581600,2.50558154296875,-0.30472591519355774,-0.08390210568904877,0.19223552942276
1789062375919541500,2.51554150390625,-0.2777526080608368,0.014755794778466225,0.23646563291549683
1789062375929502700,2.525502685546875,-0.24971911311149597,0.10072635859251022,0.25107067823410034
1789062375939462700,2.535462646484375,-0.24600480496883392,0.12354720383882523,0.1987355351448059
1789062375949423600,2.545423583984375,-0.27577441930770874,0.051508426666259766,0.09004633128643036
1789062375959383800,2.5553837890625,-0.36638206243515015,-0.08118727058172226,-0.05883992835879326
1789062375969344500,2.565344482421875,-0.5039660930633545,-0.23364152014255524,-0.22175507247447968
1789062375979304400,2.575304443359375,-0.6583688855171204,-0.3898102343082428,-0.3670334815979004
1789062375989265700,2.585265625,-0.7896888256072998,-0.5054243803024292,-0.4669664800167084
1789062375999226600,2.5952265625,-0.8734926581382751,-0.5251188278198242,-0.5211871266365051
1789062376009186800,2.605186767578125,-0.8811987638473511,-0.43480491638183594,-0.5018773078918457
1789062376019147500,2.6151474609375,-0.7873255610466003,-0.21682479977607727,-0.41438525915145874
1789062376029107500,2.625107421875,-0.6221698522567749,0.07650348544120789,-0.2682269811630249
1789062376039068700,2.635068603515625,-0.4059995114803314,0.39134612679481506,-0.09831011295318604
1789062376049028600,2.645028564453125,-0.1863694190979004,0.6699606776237488,0.06627217680215836
1789062376058989800,2.65498974609375,-0.0312669463455677,0.8290629386901855,0.17535491287708282
1789062376068949800,2.66494970703125,0.0635322704911232,0.826263964176178,0.21904434263706207
1789062376078910500,2.674910400390625,0.10735592246055603,0.6943457126617432,0.21011005342006683
1789062376088870700,2.68487060546875,0.1021995097398758,0.4903939366340637,0.17870338261127472
1789062376098831600,2.69483154296875,0.05858542025089264,0.22076104581356049,0.12360674142837524
1789062376108791600,2.70479150390625,-0.001992969773709774,-0.06247119978070259,0.07876390963792801
1789062376118752800,2.714752685546875,-0.05019345507025719,-0.2596709132194519,0.06686441600322723
1789062376128712700,2.724712646484375,-0.06470182538032532,-0.3198426365852356,0.08998119086027145
1789062376138673700,2.734673583984375,-0.053978338837623596,-0.2816867530345917,0.11620213836431503
1789062376148634600,2.744634521484375,-0.030811503529548645,-0.19856630265712738,0.13693885505199432
1789062376158594600,2.754594482421875,0.0009770673932507634,-0.08414877206087112,0.15494762361049652
1789062376168555800,2.7645556640625,0.028309620916843414,0.056595299392938614,0.18772074580192566
1789062376178515700,2.774515625,0.05149584263563156,0.2054574191570282,0.22400660812854767
1789062376188476700,2.7844765625,0.06824686378240585,0.31967297196388245,0.25654247403144836
1789062376198436900,2.794436767578125,0.08746635913848877,0.3847200870513916,0.2784844934940338
1789062376208397600,2.8043974609375,0.10710903257131577,0.4145626723766327,0.2946019470691681
1789062376218357500,2.814357421875,0.1254694014787674,0.40060004591941833,0.30078476667404175
1789062376228318700,2.824318603515625,0.1358615905046463,0.3274563252925873,0.29568907618522644
1789062376238278700,2.834278564453125,0.14777182042598724,0.24751247465610504,0.27347636222839355
1789062376248239900,2.844239990234375,0.16701023280620575,0.1596587747335434,0.23307755589485168
1789062376258199800,2.85419970703125,0.19426287710666656,0.07201634347438812,0.18709754943847656
1789062376268160500,2.864160400390625,0.21062880754470825,0.019226104021072388,0.1471906155347824
1789062376278120700,2.87412060546875,0.19877876341342926,-0.0037771256174892187,0.11022990942001343
1789062376288081700,2.88408154296875,0.163235142827034,-0.0039451709017157555,0.06550930440425873
1789062376298043000,2.89404296875,0.12224593013525009,0.0010131122544407845,0.014005819335579872
1789062376308002800,2.9040029296875,0.09316607564687729,-0.00045375688932836056,-0.04223854839801788
1789062376317963500,2.913963623046875,0.07487843185663223,-0.00539133045822382,-0.09671058505773544
1789062376327923700,2.923923828125,0.05934660881757736,-0.012670015916228294,-0.13359962403774261
1789062376337884700,2.933884765625,0.04641665145754814,-0.0035808507818728685,-0.13733381032943726
1789062376347844600,2.9438447265625,0.04585738852620125,0.025498470291495323,-0.11310170590877533
1789062376357805800,2.953805908203125,0.06535309553146362,0.05880648270249367,-0.07737089693546295
1789062376367765800,2.963765869140625,0.11341383308172226,0.1304692178964615,-0.024388102814555168
1789062376377726500,2.9737265625,0.18406380712985992,0.256024032831192,0.03736324980854988
1789062376387686700,2.983686767578125,0.25473904609680176,0.4082804024219513,0.09633149206638336
1789062376397647600,2.993647705078125,0.30968743562698364,0.5177644491195679,0.13001351058483124
1789062376407607600,3.003607666015625,0.3358394205570221,0.5602594614028931,0.1375952661037445
1789062376417568800,3.01356884765625,0.3582223057746887,0.5466107726097107,0.1344611495733261
1789062376427528700,3.02352880859375,0.3705969452857971,0.4685439467430115,0.12540586292743683
1789062376437489700,3.03348974609375,0.3625307083129883,0.3402119278907776,0.11302614212036133
1789062376447450600,3.04345068359375,0.34511974453926086,0.18209342658519745,0.10583773255348206
1789062376457410600,3.05341064453125,0.32508161664009094,0.02695782110095024,0.10303022712469101
1789062376467371800,3.063371826171875,0.30269190669059753,-0.1133367046713829,0.10257748514413834
1789062376477331700,3.073331787109375,0.26458337903022766,-0.23595386743545532,0.09844895452260971
1789062376487292700,3.083292724609375,0.20465292036533356,-0.34838029742240906,0.09228266775608063
1789062376497252600,3.093252685546875,0.12484198808670044,-0.4332005977630615,0.08828754723072052
1789062376507213600,3.103213623046875,0.03453046455979347,-0.4725181758403778,0.08682413399219513
1789062376517173800,3.113173828125,-0.04861290380358696,-0.49189573526382446,0.07172314077615738
1789062376527134700,3.123134765625,-0.11275247484445572,-0.48165905475616455,0.055995307862758636
1789062376537094700,3.1330947265625,-0.12460216879844666,-0.39291685819625854,0.07089606672525406
1789062376547055600,3.1430556640625,-0.09417795389890671,-0.2014741748571396,0.1240820586681366
1789062376557015600,3.153015625,-0.03941619023680687,0.09850039333105087,0.20770414173603058
1789062376566976500,3.1629765625,0.02755751647055149,0.47736409306526184,0.29502543807029724
1789062376576937700,3.172937744140625,0.09131868928670883,0.794918954372406,0.33736738562583923
1789062376586897700,3.182897705078125,0.14025719463825226,0.9495021104812622,0.3159196078777313
1789062376596858600,3.192858642578125,0.1832122951745987,0.9900359511375427,0.24259106814861298
1789062376606818600,3.202818603515625,0.20293566584587097,0.9557781219482422,0.12790656089782715
1789062376616779500,3.212779541015625,0.19843418896198273,0.862115204334259,-0.04084575176239014
1789062376626739700,3.22273974609375,0.21011747419834137,0.637670636177063,-0.257569283246994
1789062376636700700,3.23270068359375,0.23766863346099854,0.256629079580307,-0.5106433629989624
1789062376646660600,3.24266064453125,0.2530968487262726,-0.18797394633293152,-0.7573493123054504
1789062376656621600,3.25262158203125,0.21294546127319336,-0.5675626397132874,-0.9197225570678711
1789062376666581500,3.26258154296875,0.10662301629781723,-0.7881461381912231,-0.9730616807937622
1789062376676542700,3.272542724609375,-0.03342622146010399,-0.839166522026062,-0.9261088967323303
1789062376686502700,3.282502685546875,-0.1421034336090088,-0.6971590518951416,-0.7951580882072449
1789062376696463600,3.292463623046875,-0.18112030625343323,-0.37219205498695374,-0.6136879324913025
1789062376706423800,3.302423828125,-0.11757088452577591,0.04812801256775856,-0.42939186096191406
1789062376716384800,3.312384765625,0.030960459262132645,0.43933045864105225,-0.2948632836341858
1789062376726345700,3.322345703125,0.20333942770957947,0.6616343855857849,-0.235935777425766
1789062376736305700,3.3323056640625,0.3522178828716278,0.7145965099334717,-0.2313326895236969
1789062376746266600,3.3422666015625,0.4651593565940857,0.5868310928344727,-0.2733381986618042
1789062376756226800,3.352226806640625,0.5398889780044556,0.29931870102882385,-0.3360685110092163
1789062376766187800,3.362187744140625,0.5666263699531555,-0.01681983657181263,-0.3708754777908325
1789062376776147700,3.372147705078125,0.5401726365089417,-0.25229668617248535,-0.33934810757637024
1789062376786108700,3.382108642578125,0.4779824912548065,-0.35940903425216675,-0.24474410712718964
1789062376796068600,3.392068603515625,0.40917250514030457,-0.37903130054473877,-0.12332586944103241
1789062376806029600,3.402029541015625,0.36036503314971924,-0.3221762776374817,0.0156842153519392
1789062376815989800,3.41198974609375,0.32926037907600403,-0.1787414699792862,0.16501744091510773
1789062376825950700,3.42195068359375,0.3101487159729004,0.014416535384953022,0.29984477162361145
1789062376835910700,3.43191064453125,0.2941511571407318,0.17468489706516266,0.38937702775001526
1789062376845871600,3.44187158203125,0.28421515226364136,0.26649361848831177,0.4200883209705353
1789062376855832600,3.45183251953125,0.28794461488723755,0.31094875931739807,0.4162902235984802
1789062376865793000,3.46179296875,0.27464932203292847,0.2814960777759552,0.38072770833969116
1789062376875754200,3.471754150390625,0.23205207288265228,0.2011519968509674,0.31769993901252747
1789062376885714200,3.481714111328125,0.16661101579666138,0.08505707234144211,0.24027755856513977
1789062376895675100,3.491675048828125,0.09297618269920349,-0.05080407112836838,0.16265225410461426
1789062376905635000,3.501635009765625,0.024034403264522552,-0.16974323987960815,0.10297586768865585
1789062376915596000,3.511595947265625,-0.042921751737594604,-0.22806458175182343,0.06687189638614655
1789062376925556200,3.52155615234375,-0.09447548538446426,-0.2430291473865509,0.043036073446273804
1789062376935517200,3.53151708984375,-0.1399766206741333,-0.21305876970291138,0.025853417813777924
1789062376945477000,3.54147705078125,-0.18537738919258118,-0.164729043841362,-0.0028629160951822996
1789062376955438000,3.55143798828125,-0.24144385755062103,-0.16690920293331146,-0.05561979115009308
1789062376965398000,3.56139794921875,-0.29540830850601196,-0.21924059092998505,-0.12024219334125519
1789062376975359000,3.57135888671875,-0.33972033858299255,-0.27491411566734314,-0.17476822435855865
1789062376985320200,3.5813203125,-0.37090247869491577,-0.3025859594345093,-0.19657711684703827
1789062376995280100,3.591280029296875,-0.40155577659606934,-0.28889134526252747,-0.18708544969558716
1789062377005241000,3.601240966796875,-0.40338268876075745,-0.2001846581697464,-0.14390815794467926
1789062377015201000,3.611200927734375,-0.360867977142334,-0.07576312124729156,-0.0762326642870903
1789062377025162000,3.621161865234375,-0.29397308826446533,0.09387917816638947,0.0075636981055140495
1789062377035122200,3.6311220703125,-0.2194538712501526,0.2500470280647278,0.08142503350973129
1789062377045083100,3.641083251953125,-0.15781180560588837,0.3157573342323303,0.12385158240795135
1789062377055043000,3.65104296875,-0.1102757379412651,0.3055247366428375,0.14144976437091827
1789062377065004000,3.661004150390625,-0.07481122016906738,0.22636975347995758,0.15772247314453125
1789062377074964000,3.6709638671875,-0.05516500025987625,0.10957223922014236,0.177424356341362
1789062377084925200,3.68092529296875,-0.06003858521580696,-0.0055913664400577545,0.20389698445796967
1789062377094885000,3.690885009765625,-0.08868413418531418,-0.07881604135036469,0.22701673209667206
1789062377104846000,3.70084619140625,-0.1296214461326599,-0.11489228904247284,0.23312389850616455
1789062377114807000,3.71080712890625,-0.16889911890029907,-0.13431009650230408,0.21429559588432312
1789062377124767000,3.72076708984375,-0.19991083443164825,-0.1409056931734085,0.18313288688659668
1789062377134728200,3.730728271484375,-0.21876411139965057,-0.11701035499572754,0.15752124786376953
1789062377144688000,3.740688232421875,-0.22260785102844238,-0.06562572717666626,0.1529179811477661
1789062377154649000,3.750649169921875,-0.21350035071372986,0.00881541334092617,0.17194917798042297
1789062377164609300,3.760609375,-0.18979689478874207,0.10391289740800858,0.21476028859615326
1789062377174570000,3.770570068359375,-0.14975817501544952,0.19462084770202637,0.264029860496521
1789062377184530000,3.780530029296875,-0.1046932190656662,0.25175923109054565,0.3057059347629547
1789062377194491100,3.7904912109375,-0.06995754688978195,0.24781034886837006,0.33102482557296753
1789062377204451000,3.800451171875,-0.06827230006456375,0.18555229902267456,0.3419147729873657
1789062377214412000,3.810412109375,-0.1058974489569664,0.06938755512237549,0.3274977207183838
1789062377224372200,3.820372314453125,-0.1857328861951828,-0.08160382509231567,0.2733173072338104
1789062377234333000,3.8303330078125,-0.30408379435539246,-0.22188840806484222,0.1760452389717102
1789062377244294100,3.840294189453125,-0.4235609173774719,-0.30476462841033936,0.05078665167093277
1789062377254254000,3.850254150390625,-0.5389604568481445,-0.37590041756629944,-0.10902184247970581
1789062377264215000,3.860215087890625,-0.6637418270111084,-0.49965140223503113,-0.3005920648574829
1789062377274175200,3.87017529296875,-0.8123789429664612,-0.623623788356781,-0.50336092710495
1789062377284136000,3.880135986328125,-0.946357786655426,-0.7370384931564331,-0.6730237007141113
1789062377294096000,3.890095947265625,-1.029689073562622,-0.7669143080711365,-0.767988383769989
1789062377304057000,3.90005712890625,-1.0098347663879395,-0.5951944589614868,-0.7456777691841125
1789062377314017000,3.91001708984375,-0.8887922167778015,-0.23963674902915955,-0.6182847619056702
1789062377323978200,3.919978271484375,-0.6846199631690979,0.1862940639257431,-0.4451712965965271
1789062377333938200,3.929938232421875,-0.4380005896091461,0.554836094379425,-0.26771506667137146
1789062377343899100,3.939899169921875,-0.21110939979553223,0.7943688035011292,-0.12869806587696075
1789062377353859000,3.949859130859375,-0.031085578724741936,0.8470415472984314,-0.039340145885944366
1789062377363820000,3.959820068359375,0.10829202830791473,0.781917929649353,0.008727246895432472
1789062377373781000,3.969781005859375,0.2052479088306427,0.6234647035598755,0.018130969256162643
1789062377383741200,3.9797412109375,0.25885891914367676,0.39614608883857727,0.008194983005523682
1789062377393702100,3.9897021484375,0.26604729890823364,0.13979271054267883,0.005551038775593042
1789062377403662000,3.999662109375,0.23330003023147583,-0.08925139904022217,0.0349733792245388
1789062377413623000,4.009623046875,0.1976672112941742,-0.21190901100635529,0.10083064436912537
1789062377423583000,4.0195830078125,0.17165851593017578,-0.2167101502418518,0.18948887288570404
1789062377433544200,4.029544189453125,0.16140800714492798,-0.1446758210659027,0.2582036852836609
1789062377443504000,4.039504150390625,0.14742562174797058,-0.042639464139938354,0.2830357849597931
1789062377453465000,4.049465087890625,0.13372096419334412,0.06383442133665085,0.261441707611084
1789062377463425300,4.05942529296875,0.13992798328399658,0.14895597100257874,0.2052823007106781
1789062377473386000,4.069385986328125,0.16273187100887299,0.20363546907901764,0.13063541054725647
1789062377483346000,4.079345947265625,0.18851207196712494,0.23054350912570953,0.05541549250483513
1789062377493307100,4.08930712890625,0.19533219933509827,0.20894306898117065,-0.014742264524102211
1789062377503268000,4.09926806640625,0.17493478953838348,0.15502363443374634,-0.07336749136447906
1789062377513228300,4.109228271484375,0.13919320702552795,0.08488985151052475,-0.11932004988193512
1789062377523189000,4.11918896484375,0.11229901760816574,0.009570326656103134,-0.14866994321346283
1789062377533149000,4.12914892578125,0.09787589311599731,-0.05101607367396355,-0.15785729885101318
1789062377543110100,4.139110107421875,0.10183068364858627,-0.1001117154955864,-0.14955489337444305
1789062377553070000,4.149070068359375,0.11931117624044418,-0.13446027040481567,-0.127547487616539
1789062377563031300,4.15903125,0.14162661135196686,-0.1275927722454071,-0.08984404802322388
1789062377572991200,4.1689912109375,0.16005590558052063,-0.0645877793431282,-0.03874273598194122
1789062377582952000,4.178951904296875,0.1675063669681549,0.02430054545402527,0.008218382485210896
1789062377592912100,4.188912109375,0.15827320516109467,0.11703512072563171,0.03428521007299423
1789062377602873000,4.198873046875,0.14047716557979584,0.19095328450202942,0.02716711163520813
1789062377612833000,4.2088330078125,0.1245858296751976,0.21823269128799438,-0.0023885767441242933
1789062377622794200,4.218794189453125,0.11983075737953186,0.2142520546913147,-0.04462125152349472
1789062377632755000,4.2287548828125,0.12497377395629883,0.19565552473068237,-0.07252328097820282
1789062377642715000,4.23871484375,0.13449910283088684,0.18760213255882263,-0.06809071451425552
1789062377652676000,4.248676025390625,0.14015917479991913,0.21014852821826935,-0.031111791729927063
1789062377662636000,4.258635986328125,0.14890766143798828,0.24002626538276672,0.02246834710240364
1789062377672597200,4.26859716796875,0.1663103550672531,0.25874507427215576,0.06593113392591476
1789062377682557200,4.27855712890625,0.1964738517999649,0.2434697300195694,0.09565121680498123
1789062377692518000,4.288517822265625,0.2200508564710617,0.2021874189376831,0.11048382520675659
1789062377702478000,4.29847802734375,0.22708426415920258,0.14306311309337616,0.11738993227481842
1789062377712439000,4.30843896484375,0.22090889513492584,0.059658169746398926,0.12107687443494797
1789062377722399000,4.31839892578125,0.20213785767555237,-0.024421552196145058,0.13044586777687073
1789062377732360200,4.328360107421875,0.18162433803081512,-0.07972800731658936,0.15011167526245117
1789062377742320000,4.338320068359375,0.1586524397134781,-0.11933107674121857,0.16798867285251617
1789062377752281000,4.348281005859375,0.12935125827789307,-0.156351238489151,0.17367592453956604
1789062377762242000,4.358241943359375,0.09049414843320847,-0.18298843502998352,0.1579529047012329
1789062377772202000,4.368201904296875,0.07017584890127182,-0.19840075075626373,0.13540072739124298
1789062377782163200,4.3781630859375,0.06903468817472458,-0.19941994547843933,0.1301708072423935
1789062377792123100,4.388123046875,0.08711192011833191,-0.14234982430934906,0.18562623858451843
1789062377802084000,4.398083984375,0.15335164964199066,0.05916145443916321,0.30970874428749084
1789062377812044000,4.4080439453125,0.26336824893951416,0.4002687335014343,0.4794730544090271
1789062377822005000,4.4180048828125,0.3754178285598755,0.707230269908905,0.6177355647087097
1789062377831965000,4.42796484375,0.43123847246170044,0.8188217878341675,0.6605005860328674
1789062377841926100,4.437926025390625,0.43504947423934937,0.805712103843689,0.6125234365463257
1789062377851886000,4.447885986328125,0.3914202153682709,0.701048731803894,0.47318392992019653
1789062377861847000,4.457846923828125,0.32216763496398926,0.5094729065895081,0.27848660945892334
1789062377871807000,4.467806884765625,0.21984708309173584,0.1895015388727188,0.036011967808008194
1789062377881768200,4.477768310546875,0.048868678510189056,-0.25012481212615967,-0.23780173063278198
1789062377891729200,4.487729248046875,-0.2011435329914093,-0.705693781375885,-0.5120039582252502
1789062377901689000,4.497689208984375,-0.4320656955242157,-0.963101863861084,-0.7012887001037598
1789062377911650300,4.507650390625,-0.5695921778678894,-0.9708130359649658,-0.7844164967536926
1789062377921610200,4.5176103515625,-0.5463009476661682,-0.6717168688774109,-0.7218804359436035
1789062377931571200,4.5275712890625,-0.3563627004623413,-0.12868593633174896,-0.5443845987319946
1789062377941531100,4.53753125,-0.07162203639745712,0.45687687397003174,-0.32784488797187805
1789062377951492000,4.5474921875,0.1849658042192459,0.8304159045219421,-0.16880927979946136
1789062377961452300,4.557452392578125,0.3519425392150879,0.8900720477104187,-0.09387911111116409
1789062377971413200,4.567413330078125,0.44890129566192627,0.7532950639724731,-0.08113051950931549
1789062377981373200,4.577373291015625,0.4660949409008026,0.4864565134048462,-0.11460831761360168
1789062377991334100,4.587334228515625,0.4054230749607086,0.14507287740707397,-0.17957594990730286
1789062378001294000,4.597294189453125,0.30129268765449524,-0.19859367609024048,-0.23601791262626648
1789062378011255300,4.60725537109375,0.2025837004184723,-0.4492025077342987,-0.25608575344085693
1789062378021216300,4.61721630859375,0.15649370849132538,-0.5495946407318115,-0.2259715348482132
1789062378031176200,4.62717626953125,0.1630701720714569,-0.5483938455581665,-0.15690088272094727
1789062378041137200,4.63713720703125,0.19878077507019043,-0.45230481028556824,-0.06354538351297379
1789062378051097000,4.64709716796875,0.26398393511772156,-0.27668288350105286,0.04463239014148712
1789062378061058000,4.65705810546875,0.3301757276058197,-0.056139059364795685,0.13381047546863556
1789062378071018200,4.667018310546875,0.381626695394516,0.12763699889183044,0.17048735916614532
1789062378080979200,4.676979248046875,0.4205045700073242,0.24852879345417023,0.17086872458457947
1789062378090939100,4.686939208984375,0.45757362246513367,0.33458101749420166,0.16033034026622772
1789062378100900000,4.696900146484375,0.4451710283756256,0.3216603994369507,0.12902621924877167
1789062378110860000,4.706860107421875,0.3816375732421875,0.21563546359539032,0.07507578283548355
1789062378120821200,4.7168212890625,0.30434945225715637,0.052544545382261276,0.01898854412138462
1789062378130782200,4.7267822265625,0.22770291566848755,-0.12064599245786667,-0.032678503543138504
1789062378140742100,4.7367421875,0.1458011269569397,-0.29817071557044983,-0.07341687381267548
1789062378150703000,4.746703125,0.062256693840026855,-0.44405025243759155,-0.08039656281471252
1789062378160663000,4.7566630859375,-0.013271353207528591,-0.5122085213661194,-0.0533020943403244
1789062378170624300,4.766624267578125,-0.08446137607097626,-0.5093091130256653,-0.015797294676303864
1789062378180584200,4.776584228515625,-0.1458166092634201,-0.4444480836391449,0.02104967087507248
1789062378190545200,4.786545166015625,-0.19877463579177856,-0.3397010266780853,0.03596341237425804
1789062378200505300,4.79650537109375,-0.2558094263076782,-0.25330808758735657,0.01020212285220623
1789062378210466000,4.806466064453125,-0.30517569184303284,-0.22331209480762482,-0.052371542900800705
1789062378220426000,4.816426025390625,-0.33111247420310974,-0.22843441367149353,-0.11655718088150024
1789062378230387200,4.82638720703125,-0.3307563364505768,-0.19291166961193085,-0.14168834686279297
1789062378240347100,4.83634716796875,-0.3214914798736572,-0.11905555427074432,-0.13397078216075897
1789062378250308400,4.846308349609375,-0.2995622456073761,-0.019849536940455437,-0.09722952544689178
1789062378260269000,4.85626904296875,-0.2659158706665039,0.06639346480369568,-0.04255855828523636
1789062378270229000,4.86622900390625,-0.2386898696422577,0.12733393907546997,0.009730221703648567
1789062378280190200,4.876190185546875,-0.23243197798728943,0.15291813015937805,0.044555846601724625
1789062378290150100,4.886150146484375,-0.2496679127216339,0.15228904783725739,0.059465885162353516
1789062378300111000,4.896111083984375,-0.28316250443458557,0.13842302560806274,0.059589989483356476
1789062378310071300,4.9060712890625,-0.3255155682563782,0.07848652452230453,0.048430897295475006
1789062378320032000,4.916031982421875,-0.36902284622192383,-0.007904554717242718,0.03484957665205002
1789062378329992000,4.925991943359375,-0.4084884226322174,-0.08610787987709045,0.02505197934806347
1789062378339953200,4.935953125,-0.4371853172779083,-0.15483660995960236,0.018718449398875237
1789062378349913000,4.9459130859375,-0.4582935869693756,-0.2032814621925354,0.00787418708205223
1789062378359874300,4.955874267578125,-0.4744539260864258,-0.23260818421840668,0.0036307061091065407
1789062378369835300,4.965835205078125,-0.4941956400871277,-0.2414763867855072,0.0019936501048505306
1789062378379795200,4.975795166015625,-0.524598240852356,-0.24310491979122162,0.008608941920101643
1789062378389756200,4.985756103515625,-0.5583314299583435,-0.23168668150901794,0.017114009708166122
1789062378399716000,4.995716064453125,-0.5891849398612976,-0.20310404896736145,0.029948849231004715
1789062378409677300,5.00567724609375,-0.610278308391571,-0.15652614831924438,0.03955814614892006
1789062378419637200,5.01563720703125,-0.6229333877563477,-0.11158744990825653,0.04486502707004547
1789062378429598200,5.02559814453125,-0.6257653832435608,-0.08757849782705307,0.04119303077459335
1789062378439558100,5.03555810546875,-0.6269468069076538,-0.09420044720172882,0.0408145934343338
1789062378449519000,5.04551904296875,-0.6195074915885925,-0.10548185557126999,0.06131179630756378
1789062378459479000,5.05547900390625,-0.600334882736206,-0.10417105257511139,0.11787308007478714
1789062378469440300,5.065440185546875,-0.5702574253082275,-0.07369959354400635,0.21247270703315735
1789062378479401200,5.075401123046875,-0.5330508947372437,-0.0184781476855278,0.3315892517566681
1789062378489361200,5.085361083984375,-0.49160122871398926,0.05637097358703613,0.46382617950439453
1789062378499322000,5.095322021484375,-0.45555374026298523,0.12584085762500763,0.5742318034172058
1789062378509282000,5.105281982421875,-0.43612727522850037,0.16473692655563354,0.663159966468811
1789062378519243300,5.1152431640625,-0.4495117962360382,0.11577603965997696,0.6926923394203186
1789062378529203200,5.125203125,-0.5643925070762634,-0.08194318413734436,0.6266862750053406
1789062378539164200,5.1351640625,-0.7824553847312927,-0.3723939061164856,0.45864349603652954
1789062378549124400,5.145124267578125,-1.0968772172927856,-0.7037677764892578,0.19308416545391083
1789062378559085000,5.1550849609375,-1.4910303354263306,-1.089166522026062,-0.169679656624794
1789062378569045000,5.165044921875,-1.853209137916565,-1.3290674686431885,-0.5681298971176147
1789062378579006200,5.175006103515625,-2.0912885665893555,-1.33734130859375,-0.9154706001281738
1789062378588966100,5.184966064453125,-2.215463876724243,-1.053341031074524,-1.1566609144210815
1789062378598927400,5.19492724609375,-2.2405407428741455,-0.5181691646575928,-1.2675517797470093
1789062378608888000,5.20488818359375,-2.1438748836517334,0.16276584565639496,-1.2719217538833618
1789062378618848000,5.214847900390625,-1.9418516159057617,0.8244388699531555,-1.2019914388656616
1789062378628809200,5.224809326171875,-1.685258150100708,1.3029563426971436,-1.098335862159729
1789062378638769200,5.23476904296875,-1.4373759031295776,1.5202399492263794,-1.0082520246505737
1789062378648730400,5.24473046875,-1.2267682552337646,1.478568196296692,-0.9358406662940979
1789062378658690300,5.254690185546875,-1.0641065835952759,1.1254069805145264,-0.8863292932510376
1789062378668651000,5.264651123046875,-0.949120283126831,0.5337556600570679,-0.7978559732437134
1789062378678611200,5.274611083984375,-0.8834683299064636,-0.050724584609270096,-0.6272261738777161
1789062378688572200,5.284572265625,-0.87956702709198,-0.5177504420280457,-0.3703027367591858
1789062378698532000,5.294531982421875,-0.9131430983543396,-0.7599495053291321,-0.07030432671308517
1789062378708493300,5.304493408203125,-0.9471538066864014,-0.8259063363075256,0.20078019797801971
1789062378718454000,5.3144541015625,-0.9521360397338867,-0.7481446862220764,0.42557817697525024
1789062378728414000,5.3244140625,-0.9583209753036499,-0.5722432732582092,0.5769052505493164
1789062378738375200,5.334375244140625,-0.9783972501754761,-0.3679963946342468,0.6383244395256042
1789062378748335000,5.344335205078125,-0.9974428415298462,-0.14660196006298065,0.6289415955543518
1789062378758296300,5.35429638671875,-1.0206477642059326,0.0611371248960495,0.5772442817687988
1789062378768256300,5.36425634765625,-1.0498971939086914,0.18734437227249146,0.5004193782806396
1789062378778217000,5.374217041015625,-1.0939900875091553,0.20853833854198456,0.4064582586288452
1789062378788177200,5.38417724609375,-1.139299988746643,0.15468038618564606,0.30862921476364136
1789062378798138000,5.39413818359375,-1.1789419651031494,0.035616058856248856,0.20726849138736725
1789062378808098000,5.40409814453125,-1.2121659517288208,-0.11980403959751129,0.10712125152349472
1789062378818059300,5.414059326171875,-1.2585729360580444,-0.29529330134391785,0.01438572071492672
1789062378828020000,5.42402001953125,-1.322033166885376,-0.4567267596721649,-0.05427573621273041
1789062378837980200,5.433980224609375,-1.3888298273086548,-0.5597621202468872,-0.08475641161203384
1789062378847941000,5.443941162109375,-1.4496781826019287,-0.6196315288543701,-0.0904543325304985
1789062378857901000,5.453901123046875,-1.5002003908157349,-0.6843357086181641,-0.08971504122018814
1789062378867861800,5.46386181640625,-1.5316100120544434,-0.6859840750694275,-0.07119274884462357
1789062378877821700,5.47382177734375,-1.5467945337295532,-0.6371238827705383,-0.0375831201672554
1789062378887782700,5.48378271484375,-1.5676047801971436,-0.5513301491737366,-0.010627137497067451
1789062378897742800,5.493742919921875,-1.5889710187911987,-0.44581252336502075,0.005061011295765638
1789062378907703600,5.50370361328125,-1.6040486097335815,-0.3376425504684448,0.00409319531172514
1789062378917663500,5.51366357421875,-1.611325740814209,-0.2295278012752533,-0.003091747174039483
1789062378927624700,5.523624755859375,-1.610385537147522,-0.1340646892786026,-0.020718351006507874
1789062378937584600,5.533584716796875,-1.6018463373184204,-0.07416514307260513,-0.04989488050341606
1789062378947545900,5.5435458984375,-1.5830273628234863,-0.053913556039333344,-0.07852011173963547
1789062378957506600,5.553506591796875,-1.5515592098236084,-0.03284768760204315,-0.07728999853134155
1789062378967466500,5.563466552734375,-1.524964451789856,-0.0006752212066203356,-0.03897290304303169
1789062378977427700,5.573427734375,-1.5108811855316162,0.01814267598092556,0.02224411442875862
1789062378987387600,5.5833876953125,-1.508607268333435,0.005756168160587549,0.09617718309164047
1789062378997348600,5.5933486328125,-1.5108094215393066,-0.023995602503418922,0.17223119735717773
1789062379007308800,5.603308837890625,-1.5180259943008423,-0.07051080465316772,0.23869428038597107
1789062379017269500,5.61326953125,-1.526623249053955,-0.13357925415039062,0.2875582277774811
1789062379027229400,5.6232294921875,-1.5455937385559082,-0.21159671247005463,0.31045934557914734
1789062379037190700,5.633190673828125,-1.5683307647705078,-0.294219434261322,0.30896157026290894
1789062379047150600,5.643150634765625,-1.580446720123291,-0.3667558431625366,0.2858316898345947
1789062379057111800,5.65311181640625,-1.5711532831192017,-0.4074087142944336,0.24948783218860626
1789062379067072500,5.663072509765625,-1.5603381395339966,-0.42353665828704834,0.20507708191871643
1789062379077032400,5.673032470703125,-1.5594040155410767,-0.42313799262046814,0.158990278840065
1789062379086993700,5.68299365234375,-1.5710378885269165,-0.4115086495876312,0.11443931609392166
1789062379096953600,5.69295361328125,-1.5902621746063232,-0.3901304006576538,0.07636649906635284
1789062379106914800,5.702914794921875,-1.6146271228790283,-0.3613092601299286,0.033165037631988525
1789062379116874800,5.712874755859375,-1.634435772895813,-0.34373027086257935,-0.015620611608028412
1789062379126835700,5.722835693359375,-1.637718915939331,-0.3194774091243744,-0.058554261922836304
1789062379136795600,5.732795654296875,-1.6301720142364502,-0.27879148721694946,-0.09085813909769058
1789062379146756600,5.742756591796875,-1.6215308904647827,-0.23409883677959442,-0.11733700335025787
1789062379156716500,5.752716552734375,-1.609933614730835,-0.18567484617233276,-0.1405019611120224
1789062379166677800,5.762677734375,-1.5915896892547607,-0.13626499474048615,-0.16550198197364807
1789062379176638700,5.772638671875,-1.5588147640228271,-0.09235105663537979,-0.18293024599552155
1789062379186598700,5.7825986328125,-1.5177628993988037,-0.07671492546796799,-0.18299461901187897
1789062379196559600,5.7925595703125,-1.4787380695343018,-0.06191520392894745,-0.15157757699489594
1789062379206519600,5.80251953125,-1.4397296905517578,-0.027475625276565552,-0.08175314217805862
1789062379216480800,5.812480712890625,-1.4031740427017212,0.014465165324509144,0.012356845661997795
1789062379226440700,5.822440673828125,-1.3682972192764282,0.05702675133943558,0.10272261500358582
1789062379236401700,5.832401611328125,-1.3212133646011353,0.1025412380695343,0.16718469560146332
1789062379246361900,5.84236181640625,-1.2561290264129639,0.14740373194217682,0.2044551968574524
1789062379256322600,5.852322509765625,-1.1782270669937134,0.2088625580072403,0.22840207815170288
1789062379266282500,5.862282470703125,-1.0993990898132324,0.2991626262664795,0.2543514668941498
1789062379276243700,5.87224365234375,-1.0265346765518188,0.38114988803863525,0.2862337827682495
1789062379286204700,5.88220458984375,-0.9690119028091431,0.41262269020080566,0.31411805748939514
1789062379296164900,5.892164794921875,-0.916039764881134,0.36630553007125854,0.32213205099105835
1789062379306125600,5.90212548828125,-0.8554073572158813,0.23818862438201904,0.3164377510547638
1789062379316085500,5.91208544921875,-0.782595157623291,0.07945065200328827,0.323667973279953
1789062379326046700,5.922046630859375,-0.7259612083435059,-0.05705660209059715,0.3467930555343628
1789062379336006700,5.932006591796875,-0.7028822302818298,-0.1832829713821411,0.3626846671104431
1789062379345967900,5.9419677734375,-0.7368099093437195,-0.2888233959674835,0.347535640001297
1789062379355927800,5.951927734375,-0.7786478996276855,-0.3348790407180786,0.30070289969444275
1789062379365888500,5.961888427734375,-0.8189143538475037,-0.30878686904907227,0.22206108272075653
1789062379375848700,5.9718486328125,-0.8571025133132935,-0.24816983938217163,0.10449689626693726
1789062379385809700,5.9818095703125,-0.8847746253013611,-0.20983926951885223,-0.047220610082149506
1789062379395769600,5.99176953125,-0.891214907169342,-0.2250957190990448,-0.21783122420310974
1789062379405730800,6.001730712890625,-0.8733354210853577,-0.2850097715854645,-0.37462422251701355
1789062379415691500,6.01169140625,-0.8352125287055969,-0.36996087431907654,-0.47687336802482605
1789062379425651500,6.0216513671875,-0.8009938597679138,-0.4734174907207489,-0.5203197002410889
1789062379435612700,6.03161279296875,-0.7749177813529968,-0.506704568862915,-0.49258869886398315
1789062379445572600,6.041572509765625,-0.7229012250900269,-0.4193477928638458,-0.3987065851688385
1789062379455533800,6.051533935546875,-0.6342392563819885,-0.23344850540161133,-0.24908913671970367
1789062379465493800,6.06149365234375,-0.5177127122879028,0.017466260120272636,-0.07279463112354279
1789062379475454500,6.071454345703125,-0.40171024203300476,0.2468232810497284,0.09571502357721329
1789062379485414700,6.08141455078125,-0.3250542879104614,0.3709956109523773,0.2006138414144516
1789062379495375600,6.091375732421875,-0.28570741415023804,0.40258973836898804,0.2296106070280075
1789062379505336800,6.1013369140625,-0.2834959030151367,0.2963847815990448,0.1838330179452896
1789062379515296800,6.111296875,-0.3223268985748291,0.11239711195230484,0.0928269550204277
1789062379525257500,6.121257568359375,-0.3640062212944031,-0.07645611464977264,0.023502595722675323
1789062379535217700,6.1312177734375,-0.3949364125728607,-0.1578572392463684,0.012773520313203335
1789062379545178600,6.1411787109375,-0.40454214811325073,-0.12378998100757599,0.05324621498584747
1789062379555138600,6.151138671875,-0.39427781105041504,-0.02121860161423683,0.12346845120191574
1789062379565099800,6.161099853515625,-0.3752966523170471,0.10047771036624908,0.19620907306671143
1789062379575059700,6.171059814453125,-0.3661912977695465,0.1776188313961029,0.24273982644081116
1789062379585020700,6.181020751953125,-0.36741530895233154,0.22388610243797302,0.24835072457790375
1789062379594980600,6.190980712890625,-0.37491852045059204,0.2044096142053604,0.20359471440315247
1789062379604941600,6.200941650390625,-0.4088892936706543,0.09252261370420456,0.0957881361246109
1789062379614902800,6.21090283203125,-0.44694212079048157,-0.11358235031366348,-0.029332764446735382
1789062379624862700,6.22086279296875,-0.45674678683280945,-0.2883948087692261,-0.0953146368265152
1789062379634823700,6.23082373046875,-0.4455580711364746,-0.33452022075653076,-0.07693056762218475
1789062379644783600,6.24078369140625,-0.43390214443206787,-0.30501431226730347,-0.01613583043217659
1789062379654744600,6.25074462890625,-0.3931267559528351,-0.17398756742477417,0.06674706935882568
1789062379664704500,6.26070458984375,-0.31342536211013794,-0.0015186613891273737,0.15069372951984406
1789062379674665700,6.270665771484375,-0.22952859103679657,0.13722111284732819,0.211762934923172
1789062379684625700,6.280625732421875,-0.18508972227573395,0.18322771787643433,0.23591288924217224
1789062379694587000,6.2905869140625,-0.17755670845508575,0.18317684531211853,0.2363179624080658
1789062379704546800,6.300546875,-0.19164986908435822,0.11609458923339844,0.21158818900585175
1789062379714507500,6.310507568359375,-0.22298169136047363,-0.02530648186802864,0.15713852643966675
1789062379724468700,6.32046875,-0.24054230749607086,-0.1911606341600418,0.102218858897686
1789062379734428700,6.3304287109375,-0.24311040341854095,-0.2961174249649048,0.06439798325300217
1789062379744390000,6.340389892578125,-0.23250435292720795,-0.3084705173969269,0.043998125940561295
1789062379754349800,6.350349853515625,-0.21300549805164337,-0.27201399207115173,0.028609054163098335
1789062379764310500,6.360310546875,-0.18609611690044403,-0.2040780931711197,0.010440435260534286
1789062379774270700,6.370270751953125,-0.1492811143398285,-0.1432267278432846,-0.019818933680653572
1789062379784231700,6.380231689453125,-0.1245206668972969,-0.12561093270778656,-0.04687919467687607
1789062379794191600,6.390191650390625,-0.12587541341781616,-0.1586378663778305,-0.06773440539836884
1789062379804152800,6.40015283203125,-0.15271230041980743,-0.23216938972473145,-0.08007505536079407
1789062379814112800,6.41011279296875,-0.1719035655260086,-0.3038718104362488,-0.06991402804851532
1789062379824073500,6.420073486328125,-0.16801860928535461,-0.3404998779296875,-0.029792655259370804
1789062379834034700,6.43003466796875,-0.14638255536556244,-0.3405486047267914,0.03202783688902855
1789062379843994600,6.43999462890625,-0.12294221669435501,-0.3171868920326233,0.09364349395036697
1789062379853955800,6.449955810546875,-0.09922889620065689,-0.2737177014350891,0.14653412997722626
1789062379863915500,6.45991552734375,-0.08942920714616776,-0.26500406861305237,0.1680549681186676
1789062379873876500,6.46987646484375,-0.10590910911560059,-0.3080391585826874,0.15608486533164978
1789062379883836400,6.47983642578125,-0.14700919389724731,-0.4035967290401459,0.11360437422990799
1789062379893797600,6.489797607421875,-0.20610873401165009,-0.5363414287567139,0.0560486726462841
1789062379903757600,6.499757568359375,-0.24555382132530212,-0.6339277029037476,0.015974553301930428
1789062379913718500,6.509718505859375,-0.26926979422569275,-0.6751430630683899,0.044720981270074844
1789062379923678700,6.5196787109375,-0.2825973331928253,-0.637744128704071,0.1110590323805809
1789062379933639400,6.529639404296875,-0.25435104966163635,-0.49493134021759033,0.2032933533191681
1789062379943600600,6.5396005859375,-0.20548661053180695,-0.33366018533706665,0.27713528275489807
1789062379953560600,6.549560546875,-0.19588032364845276,-0.2996324598789215,0.2597951889038086
1789062379963521500,6.559521484375,-0.2548927664756775,-0.3857881724834442,0.14338624477386475
1789062379973481700,6.569481689453125,-0.3521013557910919,-0.48908260464668274,-0.03195948153734207
1789062379983442400,6.5794423828125,-0.47629016637802124,-0.5619723200798035,-0.2427949458360672
1789062379993402400,6.58940234375,-0.5972581505775452,-0.517539381980896,-0.43976765871047974
1789062380003363600,6.599363525390625,-0.7088506817817688,-0.40926313400268555,-0.6190804243087769
1789062380013323500,6.609323486328125,-0.7737056016921997,-0.22770480811595917,-0.7573632001876831
1789062380023284500,6.619284423828125,-0.7545355558395386,-0.02182820998132229,-0.8311929702758789
1789062380033244700,6.62924462890625,-0.6523919105529785,0.16407454013824463,-0.8368074297904968
1789062380043205400,6.639205322265625,-0.47260189056396484,0.3153032958507538,-0.760202169418335
1789062380053166600,6.64916650390625,-0.2665768265724182,0.4042600393295288,-0.5993722677230835
1789062380063126500,6.65912646484375,-0.08637730777263641,0.38643524050712585,-0.3820406496524811
1789062380073087500,6.66908740234375,0.03611638396978378,0.2686990201473236,-0.1343035250902176
1789062380083047700,6.679047607421875,0.10050258040428162,0.07835187762975693,0.10028272122144699
1789062380093008600,6.689008544921875,0.13017499446868896,-0.10874131321907043,0.2932383120059967
1789062380102968600,6.698968505859375,0.11662358045578003,-0.263235867023468,0.4381219446659088
1789062380112929500,6.708929443359375,0.08223018050193787,-0.3682989180088043,0.5221883654594421
1789062380122889500,6.718889404296875,0.047314200550317764,-0.4229697585105896,0.5402801036834717
1789062380132850700,6.7288505859375,0.005398441106081009,-0.43049877882003784,0.49461832642555237
1789062380142810600,6.738810546875,-0.041537102311849594,-0.4030812084674835,0.39038345217704773
1789062380152771600,6.748771484375,-0.09564533829689026,-0.3381440043449402,0.244679793715477
1789062380162732500,6.758732666015625,-0.1452552080154419,-0.24390779435634613,0.08495141565799713
1789062380172692500,6.7686923828125,-0.1972145438194275,-0.11698660254478455,-0.058286167681217194
1789062380182653400,6.7786533203125,-0.2425157129764557,0.027379155158996582,-0.1618090718984604
1789062380192613600,6.788613525390625,-0.2640518844127655,0.16709524393081665,-0.20696109533309937
1789062380202574600,6.79857470703125,-0.2653094232082367,0.28617703914642334,-0.18888519704341888
1789062380212534500,6.808534423828125,-0.24944044649600983,0.34539562463760376,-0.12048722058534622
1789062380222495500,6.81849560546875,-0.23102258145809174,0.32336872816085815,-0.027753785252571106
1789062380232455400,6.828455322265625,-0.21921172738075256,0.2236512005329132,0.06746754050254822
1789062380242416600,6.838416748046875,-0.21738266944885254,0.08977624773979187,0.15348194539546967
1789062380252377600,6.848377685546875,-0.21412642300128937,-0.05089031904935837,0.2229616791009903
1789062380262337500,6.858337646484375,-0.20732416212558746,-0.14464786648750305,0.2751796841621399
1789062380272298500,6.868298583984375,-0.19424830377101898,-0.1671704798936844,0.3084803819656372
1789062380282258400,6.878258544921875,-0.18387210369110107,-0.1280956268310547,0.30273133516311646
1789062380292219600,6.8882197265625,-0.17601072788238525,-0.06744959205389023,0.2545190453529358
1789062380302179600,6.8981796875,-0.16834641993045807,-0.008238577283918858,0.17652912437915802
1789062380312140500,6.908140625,-0.1590871512889862,0.035195451229810715,0.08723386377096176
1789062380322100700,6.918100830078125,-0.155024453997612,0.062444742769002914,0.006663761101663113
1789062380332061400,6.9280615234375,-0.1611076444387436,0.0837167426943779,-0.0549980029463768
1789062380342021400,6.938021484375,-0.17437048256397247,0.08987795561552048,-0.09779039025306702
1789062380351982600,6.947982666015625,-0.18463483452796936,0.060862280428409576,-0.11609962582588196
1789062380361943600,6.957943603515625,-0.18810811638832092,0.029995499178767204,-0.10213583707809448
1789062380371903500,6.967903564453125,-0.18532325327396393,-0.003456998383626342,-0.064113087952137
1789062380381864400,6.977864501953125,-0.1675640046596527,-0.03662359341979027,-0.014090391807258129
1789062380391824400,6.987824462890625,-0.13697360455989838,-0.062304988503456116,0.042295653373003006
1789062380401785600,6.99778564453125,-0.0890185609459877,-0.030122725293040276,0.11046655476093292
1789062380411745500,7.00774560546875,-0.022990010678768158,0.07654805481433868,0.1866079419851303
1789062380421706500,7.01770654296875,0.037417102605104446,0.20039241015911102,0.24737051129341125
1789062380431666700,7.027666748046875,0.07513011991977692,0.2989213764667511,0.27610307931900024
1789062380441627400,7.03762744140625,0.0944628193974495,0.33293616771698,0.271515429019928
1789062380451587300,7.04758740234375,0.1011553481221199,0.3069663345813751,0.2436441332101822
1789062380461548500,7.057548583984375,0.0895535945892334,0.2450280487537384,0.204478919506073
1789062380471509500,7.067509521484375,0.05046159029006958,0.13545815646648407,0.1610422283411026
1789062380481469700,7.0774697265625,-0.015811992809176445,0.003159863408654928,0.12621383368968964
1789062380491430400,7.087430419921875,-0.0892648994922638,-0.08633273839950562,0.11062208563089371
1789062380501390300,7.097390380859375,-0.1418122798204422,-0.12514697015285492,0.11516783386468887
1789062380511351600,7.1073515625,-0.17999616265296936,-0.13210488855838776,0.11892347037792206
1789062380521311500,7.1173115234375,-0.2082863748073578,-0.1343296319246292,0.10239192843437195
1789062380531272700,7.127272705078125,-0.2281562089920044,-0.14127489924430847,0.06357742100954056
1789062380541232600,7.137232666015625,-0.24217833578586578,-0.15888996422290802,0.01370681170374155
1789062380551193600,7.147193603515625,-0.2601165771484375,-0.17416904866695404,-0.02538839355111122
1789062380561154600,7.157154541015625,-0.2663933336734772,-0.16112038493156433,-0.05053629353642464
1789062380571114500,7.167114501953125,-0.2618313431739807,-0.08751434832811356,-0.05001964047551155
1789062380581075500,7.177075439453125,-0.2492460459470749,0.05911139026284218,-0.03147639334201813
1789062380591035600,7.18703564453125,-0.25026923418045044,0.22036685049533844,-0.01482018455862999
1789062380600996600,7.19699658203125,-0.26406729221343994,0.36029407382011414,-0.02584967017173767
1789062380610956500,7.20695654296875,-0.26623299717903137,0.4614499807357788,-0.060116030275821686
1789062380620917500,7.21691748046875,-0.2700520157814026,0.503135621547699,-0.1130315437912941
1789062380630877400,7.22687744140625,-0.2695220410823822,0.47932854294776917,-0.16244304180145264
1789062380640838700,7.236838623046875,-0.24885697662830353,0.41007208824157715,-0.19178874790668488
1789062380650798600,7.246798583984375,-0.2018442004919052,0.31033855676651,-0.1924942135810852
1789062380660759600,7.256759521484375,-0.14151903986930847,0.2106175273656845,-0.15453189611434937
1789062380670720500,7.266720458984375,-0.07056737691164017,0.13528655469417572,-0.08978965133428574
1789062380680680400,7.276680419921875,-0.0040134587325155735,0.059275224804878235,-0.022434523329138756
1789062380690641700,7.2866416015625,0.058879218995571136,-0.02848072536289692,0.037748124450445175
1789062380700601600,7.2966015625,0.11724226921796799,-0.12103822827339172,0.07503356784582138
1789062380710562600,7.3065625,0.16368113458156586,-0.2124967724084854,0.08110317587852478
1789062380720522800,7.316522705078125,0.18453790247440338,-0.2935067415237427,0.05240792781114578
1789062380730483500,7.3264833984375,0.19124135375022888,-0.35282623767852783,-0.001545851118862629
1789062380740443400,7.336443359375,0.1889837682247162,-0.39805036783218384,-0.07498102635145187
1789062380750404600,7.346404541015625,0.18526414036750793,-0.4200185239315033,-0.15661916136741638
1789062380760365600,7.356365478515625,0.18226727843284607,-0.3878123164176941,-0.22937190532684326
1789062380770325500,7.366325439453125,0.17106202244758606,-0.31533703207969666,-0.2744655907154083
1789062380780286500,7.376286376953125,0.147208571434021,-0.21679984033107758,-0.2992911636829376
1789062380790246400,7.386246337890625,0.12740583717823029,-0.10024207085371017,-0.30604228377342224
1789062380800207600,7.39620751953125,0.13000591099262238,0.024993328377604485,-0.29564419388771057
1789062380810167600,7.40616748046875,0.14930903911590576,0.13401275873184204,-0.27386459708213806
1789062380820128500,7.41612841796875,0.1801103800535202,0.21094246208667755,-0.2404748797416687
1789062380830088700,7.426088623046875,0.21652431786060333,0.2362709939479828,-0.19360750913619995
1789062380840049400,7.43604931640625,0.25902438163757324,0.23123420774936676,-0.12899625301361084
1789062380850009300,7.44600927734375,0.3079304099082947,0.2160150408744812,-0.05243596434593201
1789062380859970600,7.455970458984375,0.35448992252349854,0.19248566031455994,0.03472750633955002
1789062380869932000,7.46593212890625,0.3819502890110016,0.17697860300540924,0.1169896200299263
1789062380879892000,7.47589208984375,0.38471493124961853,0.1510525941848755,0.1766602247953415
1789062380889853000,7.48585302734375,0.372985303401947,0.09914277493953705,0.20217196643352509
1789062380899812900,7.495812744140625,0.34359145164489746,0.001888371305540204,0.1884099394083023
1789062380909774000,7.505774169921875,0.2829459607601166,-0.12670981884002686,0.13621677458286285
1789062380919734000,7.515734130859375,0.1976640820503235,-0.27306947112083435,0.053268320858478546
1789062380929695000,7.525695068359375,0.09311183542013168,-0.43989601731300354,-0.04773126542568207
1789062380939655200,7.5356552734375,-0.016887646168470383,-0.6024919748306274,-0.14683037996292114
1789062380949615900,7.545615966796875,-0.12201806157827377,-0.6984965205192566,-0.21906089782714844
1789062380959576800,7.555576904296875,-0.21510674059391022,-0.7099922895431519,-0.2748042941093445
1789062380969537000,7.565537109375,-0.27498337626457214,-0.6531623005867004,-0.3100627064704895
1789062380979498000,7.575498046875,-0.28681764006614685,-0.5335493683815002,-0.32692089676856995
1789062380989458000,7.5854580078125,-0.25639235973358154,-0.35048529505729675,-0.32568359375
1789062380999419000,7.5954189453125,-0.20158131420612335,-0.1311350166797638,-0.31055396795272827
1789062381009378800,7.60537890625,-0.13386884331703186,0.11280815303325653,-0.2772924304008484
1789062381019340000,7.615340087890625,-0.05654820054769516,0.3104998767375946,-0.2232186645269394
1789062381029300000,7.625300048828125,0.00019337530829943717,0.40710684657096863,-0.1617497056722641
1789062381039261000,7.635260986328125,0.03349967673420906,0.4240097403526306,-0.09898201376199722
1789062381049222000,7.645221923828125,0.054464880377054214,0.3817986249923706,-0.038638509809970856
1789062381059181800,7.655181884765625,0.07028190791606903,0.2937573492527008,0.022314244881272316
1789062381069143000,7.66514306640625,0.06820571422576904,0.18196743726730347,0.08042815327644348
1789062381079103000,7.67510302734375,0.04046507924795151,0.059332650154829025,0.11583851277828217
1789062381089064000,7.68506396484375,-0.007529613561928272,-0.06416212767362595,0.12754710018634796
1789062381099024100,7.695024169921875,-0.05715596675872803,-0.1881626546382904,0.10533267259597778
1789062381108984800,7.70498486328125,-0.09837211668491364,-0.2953956425189972,0.06326723843812943
1789062381118944800,7.71494482421875,-0.13222382962703705,-0.3543860912322998,0.02238311432301998
1789062381128906000,7.724906005859375,-0.15671852231025696,-0.3791942298412323,0.0030112802051007748
1789062381138866000,7.734865966796875,-0.1800280660390854,-0.3833504021167755,0.002913841512054205
1789062381148827000,7.744826904296875,-0.19103997945785522,-0.37378111481666565,0.006708845961838961
1789062381158787800,7.754787841796875,-0.17687727510929108,-0.3448539674282074,0.022847067564725876
1789062381168747800,7.764747802734375,-0.1477460116147995,-0.27522721886634827,0.06247889995574951
1789062381178709000,7.774708984375,-0.12403618544340134,-0.16279245913028717,0.13504578173160553
1789062381188669000,7.7846689453125,-0.10988814383745193,-0.028251154348254204,0.2236480861902237
1789062381198630000,7.7946298828125,-0.10249704122543335,0.07288021594285965,0.30920496582984924
1789062381208590000,7.804590087890625,-0.10233378410339355,0.14082251489162445,0.3702464699745178
1789062381218551000,7.814551025390625,-0.1009943038225174,0.17535439133644104,0.397094190120697
1789062381228511000,7.824510986328125,-0.09881877154111862,0.18312415480613708,0.3975841999053955
1789062381238472000,7.834471923828125,-0.11814150959253311,0.13411296904087067,0.3303450047969818
1789062381248433000,7.844432861328125,-0.18663853406906128,-0.022534430027008057,0.19069495797157288
1789062381258393000,7.85439306640625,-0.3129981458187103,-0.2655875086784363,-0.008902370929718018
1789062381268354000,7.86435400390625,-0.4670598804950714,-0.5452295541763306,-0.24089805781841278
1789062381278314000,7.87431396484375,-0.6397165656089783,-0.7081886529922485,-0.4398514926433563
1789062381288275000,7.88427490234375,-0.7720671892166138,-0.7243540287017822,-0.5855103731155396
1789062381298235000,7.89423486328125,-0.8457375764846802,-0.6398168802261353,-0.6862793564796448
1789062381308196000,7.904196044921875,-0.8153517246246338,-0.43776392936706543,-0.7063391208648682
1789062381318156000,7.914156005859375,-0.6927413940429688,-0.11280901730060577,-0.6304115653038025
1789062381328117000,7.924116943359375,-0.5236759185791016,0.2979561686515808,-0.48290762305259705
1789062381338077200,7.9340771484375,-0.31627002358436584,0.6859628558158875,-0.31090524792671204
1789062381348038000,7.944037841796875,-0.08683019131422043,0.9735251665115356,-0.1420890837907791
1789062381357998800,7.953998779296875,0.12731295824050903,1.135353922843933,0.00851161777973175
1789062381367959000,7.963958984375,0.3231770098209381,1.197236180305481,0.1643827110528946
1789062381377920000,7.973919921875,0.4707818627357483,1.1493874788284302,0.3212045133113861
1789062381387880000,7.9838798828125,0.5661571621894836,1.0027042627334595,0.4520845115184784
1789062381397841000,7.9938408203125,0.6039013266563416,0.7478813529014587,0.5455350279808044
1789062381407800800,8.00380078125,0.575464129447937,0.46796151995658875,0.5777300000190735
1789062381417762000,8.013761962890625,0.4855917692184448,0.13001422584056854,0.5621836185455322
1789062381427722000,8.023721923828125,0.32920295000076294,-0.17059087753295898,0.5036952495574951
1789062381437683000,8.033682861328124,0.14280030131340027,-0.428156316280365,0.39056020975112915
1789062381447644000,8.043643798828125,-0.01690015010535717,-0.5603166818618774,0.24194221198558807
1789062381457603800,8.053603759765625,-0.12028811126947403,-0.5796152353286743,0.07899294793605804
1789062381467565000,8.06356494140625,-0.19728009402751923,-0.5159606337547302,-0.08098100870847702
1789062381477525000,8.07352490234375,-0.27427512407302856,-0.44726863503456116,-0.22946123778820038
1789062381487486000,8.08348583984375,-0.3351326286792755,-0.33851099014282227,-0.3423518240451813
1789062381497446100,8.093446044921874,-0.3646125793457031,-0.2070213258266449,-0.41352078318595886
1789062381507406800,8.10340673828125,-0.3589845299720764,-0.057137295603752136,-0.4401675760746002
1789062381517366800,8.11336669921875,-0.3082490563392639,0.0965813621878624,-0.4221961498260498
1789062381527328000,8.123327880859375,-0.23798874020576477,0.226591557264328,-0.3794920742511749
1789062381537289000,8.1332890625,-0.16493777930736542,0.2821251153945923,-0.31820231676101685
1789062381547249000,8.143248779296876,-0.09952440857887268,0.29272183775901794,-0.2351210117340088
1789062381557209900,8.1532099609375,-0.04996592551469803,0.2851165235042572,-0.13577719032764435
1789062381567169800,8.163169677734375,-0.019062070176005363,0.26133236289024353,-0.03928447887301445
1789062381577131000,8.173131103515624,-0.004965716972947121,0.21865077316761017,0.03022029809653759
1789062381587091000,8.183091064453125,-0.004336678422987461,0.15411385893821716,0.06918366998434067
1789062381597052000,8.193052001953125,-0.003836267162114382,0.09091068059206009,0.07675839215517044
1789062381607012000,8.20301220703125,-0.012647601775825024,0.04098520055413246,0.05627095699310303
1789062381616972800,8.212972900390625,-0.03830394893884659,0.00475646834820509,0.015153956599533558
1789062381626932700,8.2229326171875,-0.0798276886343956,-0.015750402584671974,-0.047407425940036774
1789062381636894000,8.23289404296875,-0.11573139578104019,0.01101754792034626,-0.10821503400802612
1789062381646855000,8.24285498046875,-0.13535596430301666,0.07570226490497589,-0.15862494707107544
1789062381656815000,8.252815185546876,-0.15161830186843872,0.12224337458610535,-0.20869038999080658
1789062381666776000,8.262776123046875,-0.17073659598827362,0.1214556097984314,-0.26507511734962463
1789062381676736000,8.272736083984375,-0.17367912828922272,0.08655885607004166,-0.31098976731300354
1789062381686697000,8.282697021484376,-0.15265001356601715,0.049781132489442825,-0.32859137654304504
1789062381696657000,8.292656982421875,-0.11654254049062729,0.01772034354507923,-0.30846062302589417
1789062381706618000,8.3026181640625,-0.08342986553907394,0.002339789178222418,-0.2536008358001709
1789062381716578000,8.312578125,-0.05118434503674507,0.0024660108610987663,-0.17995770275592804
1789062381726539000,8.3225390625,-0.019372619688510895,0.006102024577558041,-0.10067912936210632
1789062381736500000,8.3325,0.003420874010771513,-0.001262962818145752,-0.038452740758657455
1789062381746460000,8.3424599609375,0.022583384066820145,-0.014061582274734974,-0.005130202043801546
1789062381756420900,8.3524208984375,0.04004945978522301,-0.016192644834518433,0.007453233934938908
1789062381766381000,8.362381103515625,0.058091841638088226,-0.0008323297370225191,0.002389499917626381
1789062381776342000,8.372342041015624,0.07636988908052444,0.011439559981226921,-0.013819713145494461
1789062381786302000,8.382302001953125,0.08819591999053955,0.0010071590077131987,-0.03241230547428131
1789062381796263000,8.392262939453126,0.09722559154033661,-0.010242927819490433,-0.04475563392043114
1789062381806222800,8.402222900390624,0.08998765051364899,-0.032989516854286194,-0.0486941821873188
1789062381816184000,8.41218408203125,0.07332620024681091,-0.0433405302464962,-0.04218322038650513
1789062381826145000,8.42214501953125,0.045492708683013916,-0.047874026000499725,-0.03568457439541817
1789062381836105000,8.43210498046875,0.010365315712988377,-0.05592901259660721,-0.03857281059026718
1789062381846066000,8.44206591796875,-0.02515566162765026,-0.07396766543388367,-0.04896260052919388
1789062381856025900,8.45202587890625,-0.06567826122045517,-0.09643710404634476,-0.06694529205560684
1789062381865986800,8.46198681640625,-0.10660012811422348,-0.12194778770208359,-0.08262092620134354
1789062381875946800,8.47194677734375,-0.14075924456119537,-0.1653694212436676,-0.09458786994218826
1789062381885907700,8.48190771484375,-0.17518486082553864,-0.2264104038476944,-0.1009853184223175
1789062381895868000,8.491867919921875,-0.21445046365261078,-0.2828346788883209,-0.0961865708231926
1789062381905828600,8.50182861328125,-0.25555261969566345,-0.2982253432273865,-0.07940705865621567
1789062381915788500,8.51178857421875,-0.28507643938064575,-0.22199347615242004,-0.04424990713596344
1789062381925749800,8.521749755859375,-0.2778358459472656,-0.043400827795267105,0.026492439210414886
1789062381935710700,8.531710693359376,-0.2160893976688385,0.2114158421754837,0.08476149290800095
1789062381945670700,8.541670654296874,-0.10483850538730621,0.4193490743637085,0.1045631542801857
1789062381955631600,8.551631591796875,0.004750248976051807,0.5105932950973511,0.08706787973642349
1789062381965591600,8.561591552734376,0.08108416944742203,0.5072299838066101,0.055421531200408936
1789062381975552800,8.571552734375,0.12535691261291504,0.3786192834377289,0.017916638404130936
1789062381985512700,8.5815126953125,0.15712229907512665,0.1486252397298813,-0.00865425169467926
1789062381995473700,8.5914736328125,0.17967522144317627,-0.14510835707187653,-0.009102263487875462
1789062382005433900,8.601433837890625,0.13793763518333435,-0.5105225443840027,-0.00005896715447306633
1789062382015394600,8.61139453125,0.053961802273988724,-0.8011048436164856,0.03686100244522095
1789062382025355800,8.621355712890624,-0.04239775612950325,-0.9438945055007935,0.10517853498458862
1789062382035315700,8.631315673828125,-0.12775154411792755,-0.8906118869781494,0.1899261474609375
1789062382045276700,8.641276611328125,-0.1709544062614441,-0.658134937286377,0.2738300859928131
1789062382055236900,8.65123681640625,-0.15323932468891144,-0.3073236644268036,0.34027132391929626
1789062382065197800,8.66119775390625,-0.08620142936706543,0.05016070231795311,0.3633558750152588
1789062382075157800,8.67115771484375,-0.008807566948235035,0.3119540214538574,0.33068573474884033
1789062382085118700,8.68111865234375,0.061505746096372604,0.47559142112731934,0.2694495618343353
1789062382095078700,8.69107861328125,0.10811452567577362,0.5237435698509216,0.20767927169799805
1789062382105039600,8.70103955078125,0.11526351422071457,0.48114708065986633,0.15389752388000488
1789062382115000800,8.711000732421875,0.07476642727851868,0.32399505376815796,0.0996653363108635
1789062382124960800,8.720960693359375,-0.003450610674917698,0.08647596836090088,0.04429928585886955
1789062382134921700,8.730921630859376,-0.11076375097036362,-0.17532287538051605,-0.01114187017083168
1789062382144881700,8.740881591796875,-0.24930565059185028,-0.4239819645881653,-0.07848922163248062
1789062382154842600,8.750842529296875,-0.41853299736976624,-0.6202967166900635,-0.17597655951976776
1789062382164802800,8.760802734375,-0.5912424921989441,-0.7390087246894836,-0.30234700441360474
1789062382174763800,8.770763671875,-0.7128759622573853,-0.6594427824020386,-0.42083850502967834
1789062382184723700,8.7807236328125,-0.7782973051071167,-0.45604971051216125,-0.5152270197868347
1789062382194684700,8.7906845703125,-0.7816339731216431,-0.14190857112407684,-0.5615409016609192
1789062382204645600,8.800645751953125,-0.6909650564193726,0.20476680994033813,-0.5461726188659668
1789062382214605800,8.810605712890625,-0.541481614112854,0.48189014196395874,-0.4850533604621887
1789062382224566800,8.82056689453125,-0.3971031606197357,0.629892110824585,-0.3954395651817322
1789062382234526700,8.830526611328125,-0.28194913268089294,0.6731864809989929,-0.2838256061077118
1789062382244487700,8.84048779296875,-0.20434753596782684,0.6058452725410461,-0.16583582758903503
1789062382254447600,8.850447509765624,-0.17880114912986755,0.4544212818145752,-0.059869345277547836
1789062382264408600,8.86040869140625,-0.21112953126430511,0.24123656749725342,0.016335677355527878
1789062382274368800,8.87036865234375,-0.2938843071460724,0.024735640734434128,0.06469057500362396
1789062382284329700,8.880329833984375,-0.41297075152397156,-0.1694444864988327,0.08150124549865723
1789062382294290700,8.890290771484375,-0.5364394187927246,-0.3308258056640625,0.06510636955499649
1789062382304250600,8.900250732421876,-0.6398190855979919,-0.42583993077278137,0.02262628823518753
1789062382314211600,8.910211669921875,-0.7045595049858093,-0.4255935847759247,-0.037611253559589386
1789062382324171800,8.920171875,-0.7369217276573181,-0.3738059997558594,-0.12041931599378586
1789062382334132700,8.9301328125,-0.7501959800720215,-0.2932043671607971,-0.2135476917028427
1789062382344092700,8.9400927734375,-0.7581872940063477,-0.19570843875408173,-0.30519959330558777
1789062382354053600,8.9500537109375,-0.766010046005249,-0.11442935466766357,-0.38585880398750305
1789062382364013600,8.960013671875,-0.779309093952179,-0.08486346900463104,-0.44693467020988464
1789062382373974800,8.969974853515625,-0.8010900020599365,-0.08468928188085556,-0.47070690989494324
1789062382383935700,8.979935791015626,-0.8365865349769592,-0.0799160972237587,-0.44674697518348694
1789062382393895700,8.989895751953124,-0.8832380771636963,-0.06538013368844986,-0.39804643392562866
1789062382403856600,8.999856689453125,-0.9288865327835083,-0.040818601846694946,-0.3438897132873535
1789062382413816600,9.009816650390626,-0.9621175527572632,-0.019923700019717216,-0.30862757563591003
1789062382423777800,9.01977783203125,-0.9838763475418091,-0.013889777474105358,-0.30464160442352295
1789062382433737700,9.02973779296875,-0.9995679259300232,-0.006194127723574638,-0.32484006881713867
1789062382443698700,9.03969873046875,-1.0111585855484009,0.009477510116994381,-0.35882654786109924
1789062382453659600,9.04965966796875,-1.0169062614440918,0.026007233187556267,-0.4054177403450012
1789062382463619600,9.05961962890625,-1.0108131170272827,0.021066270768642426,-0.45135754346847534
1789062382473580500,9.06958056640625,-1.0146403312683105,-0.012531206011772156,-0.48115161061286926
1789062382483540700,9.079540771484375,-1.0316210985183716,-0.0751224160194397,-0.4832051694393158
1789062382493501700,9.089501708984375,-1.0696972608566284,-0.14643098413944244,-0.4450853168964386
1789062382503461600,9.099461669921874,-1.107471227645874,-0.1783018261194229,-0.3726220428943634
1789062382513422800,9.1094228515625,-1.113664150238037,-0.17914150655269623,-0.2809811532497406
1789062382523382800,9.1193828125,-1.102167010307312,-0.16696366667747498,-0.18617954850196838
1789062382533343700,9.12934375,-1.081101417541504,-0.1553075760602951,-0.10025192052125931
1789062382543304700,9.1393046875,-1.0590991973876953,-0.16670458018779755,-0.03425506129860878
1789062382553264600,9.1492646484375,-1.0365186929702759,-0.21651938557624817,0.013467599637806416
1789062382563225900,9.159225830078125,-1.0291001796722412,-0.30881255865097046,0.03761155158281326
1789062382573185800,9.169185791015625,-1.0393526554107666,-0.43043288588523865,0.04593827947974205
1789062382583146800,9.179146728515626,-1.0566169023513794,-0.5371292233467102,0.07506154477596283
1789062382593106700,9.189106689453125,-1.0730550289154053,-0.5936151146888733,0.14106406271457672
1789062382603067600,9.199067626953125,-1.088573694229126,-0.58310866355896,0.2295486479997635
1789062382613027800,9.20902783203125,-1.0655683279037476,-0.4449584186077118,0.35466545820236206
1789062382622988800,9.21898876953125,-0.993520200252533,-0.20795387029647827,0.5111014246940613
1789062382632949500,9.228949462890625,-0.9384644031524658,-0.06472918391227722,0.6252892017364502
1789062382642909700,9.23890966796875,-0.9388154149055481,-0.10559912025928497,0.6576460599899292
1789062382652870700,9.24887060546875,-1.0105910301208496,-0.35358864068984985,0.5853192210197449
1789062382662830600,9.25883056640625,-1.1555144786834717,-0.6975172162055969,0.3947226107120514
1789062382672791800,9.268791748046874,-1.3420816659927368,-0.9556204080581665,0.1744389832019806
1789062382682751700,9.278751708984375,-1.4991096258163452,-0.9661819338798523,-0.007453314960002899
1789062382692712700,9.288712646484376,-1.5990335941314697,-0.7114459872245789,-0.10986162722110748
1789062382702672600,9.298672607421874,-1.645506501197815,-0.2278287261724472,-0.15993225574493408
1789062382712633600,9.308633544921875,-1.6314256191253662,0.3232339918613434,-0.2042565494775772
1789062382722594800,9.3185947265625,-1.589914321899414,0.7455884218215942,-0.29045534133911133
1789062382732554800,9.3285546875,-1.5443652868270874,0.9643344283103943,-0.39910683035850525
1789062382742515700,9.338515625,-1.5118539333343506,0.9569862484931946,-0.5016398429870605
1789062382752475600,9.3484755859375,-1.5223115682601929,0.786573588848114,-0.5715854167938232
1789062382762436600,9.3584365234375,-1.5580155849456787,0.5129423141479492,-0.5788342356681824
1789062382772396800,9.368396728515625,-1.578446865081787,0.22575773298740387,-0.5046684145927429
1789062382782357800,9.378357666015624,-1.5743906497955322,0.03322770446538925,-0.35988566279411316
1789062382792317700,9.388317626953125,-1.5435457229614258,-0.09873057156801224,-0.19297577440738678
1789062382802278700,9.398278564453125,-1.4820808172225952,-0.14378219842910767,-0.024079956114292145
1789062382812239600,9.408239501953124,-1.377748966217041,-0.1343216747045517,0.12177892029285431
1789062382822199800,9.41819970703125,-1.2820525169372559,-0.13529320061206818,0.2184378206729889
1789062382832160800,9.428160888671876,-1.237514853477478,-0.14414235949516296,0.25348222255706787
1789062382842120700,9.43812060546875,-1.2570455074310303,-0.16164332628250122,0.22878965735435486
1789062382852081700,9.44808154296875,-1.310287594795227,-0.17874909937381744,0.15768682956695557
1789062382862041600,9.45804150390625,-1.3777966499328613,-0.20151007175445557,0.059412989765405655
1789062382872002800,9.4680029296875,-1.4559017419815063,-0.20760710537433624,-0.04336243122816086
1789062382881963000,9.477962890625,-1.512809157371521,-0.1595889776945114,-0.11203683167695999
1789062382891924000,9.487924072265624,-1.535822868347168,-0.06560232490301132,-0.14368385076522827
1789062382901885000,9.497885009765625,-1.5127553939819336,0.0630350112915039,-0.15051992237567902
1789062382911844900,9.507844970703125,-1.4370912313461304,0.2041805535554886,-0.12470985949039459
1789062382921805800,9.517805908203124,-1.3359571695327759,0.3334570527076721,-0.06763139367103577
1789062382931765800,9.527765869140625,-1.24465811252594,0.3921574056148529,0.0008956207893788815
1789062382941727000,9.53772705078125,-1.1917328834533691,0.3668118417263031,0.06678355485200882
1789062382951687000,9.54768701171875,-1.166107416152954,0.304966539144516,0.12390200793743134
1789062382961647900,9.55764794921875,-1.1621885299682617,0.21341240406036377,0.1717534214258194
1789062382971607800,9.56760791015625,-1.1763802766799927,0.11596888303756714,0.1983809918165207
1789062382981568800,9.57756884765625,-1.1990976333618164,0.017977871000766754,0.1992339938879013
1789062382991530000,9.587530029296875,-1.2218540906906128,-0.06760220229625702,0.1660105437040329
1789062383001490000,9.597489990234376,-1.2357877492904663,-0.13251090049743652,0.10854564607143402
1789062383011451000,9.607450927734375,-1.2441803216934204,-0.17985263466835022,0.036757443100214005
1789062383021410800,9.617410888671875,-1.259886384010315,-0.20644642412662506,-0.04328599199652672
1789062383031371800,9.627371826171874,-1.2781322002410889,-0.23179619014263153,-0.12819021940231323
1789062383041332000,9.63733203125,-1.2947964668273926,-0.26153331995010376,-0.2036634087562561
1789062383051293000,9.64729296875,-1.3081787824630737,-0.3017942011356354,-0.27035003900527954
1789062383061252900,9.6572529296875,-1.3188167810440063,-0.341541588306427,-0.3459218144416809
1789062383071214000,9.667214111328125,-1.3234150409698486,-0.39724618196487427,-0.43098244071006775
1789062383081174800,9.6771748046875,-1.3305970430374146,-0.4401180148124695,-0.5186691284179688
1789062383091135000,9.687135009765624,-1.3300172090530396,-0.45440447330474854,-0.587383508682251
1789062383101096000,9.697095947265625,-1.3168175220489502,-0.41877323389053345,-0.6106531620025635
1789062383111056000,9.707055908203126,-1.2985520362854004,-0.3276748061180115,-0.5816209316253662
1789062383121017000,9.71701708984375,-1.2683405876159668,-0.1979525089263916,-0.5091419816017151
1789062383130977000,9.72697705078125,-1.2311433553695679,-0.05257754772901535,-0.4130670726299286
1789062383140937700,9.736937744140626,-1.1989953517913818,0.017253994941711426,-0.3351464569568634
1789062383150898000,9.74689794921875,-1.1780798435211182,0.010371895506978035,-0.29174405336380005
1789062383160859000,9.75685888671875,-1.1566452980041504,-0.014124926179647446,-0.2802724838256836
1789062383170820000,9.766820068359374,-1.11741042137146,-0.06288059055805206,-0.30486413836479187
1789062383180780000,9.776780029296875,-1.0768158435821533,-0.11746953427791595,-0.35658884048461914
1789062383190740700,9.78674072265625,-1.0497748851776123,-0.17177055776119232,-0.4083331823348999
1789062383200701000,9.796700927734374,-1.036590337753296,-0.20404407382011414,-0.4345717132091522
1789062383210662000,9.806661865234375,-1.028626561164856,-0.21095241606235504,-0.430411159992218
1789062383220621800,9.816621826171875,-1.0084900856018066,-0.19695830345153809,-0.40330204367637634
1789062383230583000,9.8265830078125,-0.9736306071281433,-0.1875012069940567,-0.3628905117511749
1789062383240543000,9.83654296875,-0.9259647727012634,-0.1832907497882843,-0.31779468059539795
1789062383250504000,9.84650390625,-0.8775815367698669,-0.1782647967338562,-0.2707287669181824
1789062383260465000,9.85646484375,-0.8403638601303101,-0.19390366971492767,-0.22985564172267914
1789062383270424800,9.8664248046875,-0.8127352595329285,-0.20227637887001038,-0.18636946380138397
1789062383280386000,9.876385986328126,-0.7870447635650635,-0.18685853481292725,-0.14251838624477386
1789062383290346000,9.886345947265625,-0.7610069513320923,-0.14657600224018097,-0.09788206219673157
1789062383300306700,9.896306640625,-0.7424876093864441,-0.08678937703371048,-0.06460985541343689
1789062383310267000,9.906266845703126,-0.7212904691696167,-0.0060733468271791935,-0.04434399679303169
1789062383320227800,9.916227783203125,-0.6981287002563477,0.07533576339483261,-0.04281161352992058
1789062383330189000,9.92618896484375,-0.6618220806121826,0.15034201741218567,-0.05316537246108055
1789062383340149000,9.93614892578125,-0.6287187337875366,0.20818373560905457,-0.06597863882780075
1789062383350109700,9.946109619140625,-0.594457745552063,0.23004132509231567,-0.08419472724199295
1789062383360070000,9.95606982421875,-0.5527976751327515,0.19687297940254211,-0.09148513525724411
1789062383370030800,9.96603076171875,-0.5239402055740356,0.13425160944461823,-0.0788220763206482
1789062383379990800,9.97599072265625,-0.5048261284828186,0.04986429214477539,-0.054219260811805725
1789062383389952000,9.985951904296876,-0.5012730956077576,-0.013381414115428925,-0.015852931886911392
1789062383399912000,9.995911865234374,-0.5106378197669983,-0.02044917643070221,0.03079766035079956
1789062383409873000,10.005872802734375,-0.5211989283561707,0.013127833604812622,0.0636160597205162
1789062383419833900,10.015833740234376,-0.527295708656311,0.07164600491523743,0.07743866741657257
1789062383429793800,10.025793701171875,-0.5216559171676636,0.1685219258069992,0.07139100879430771
1789062383439755000,10.035755126953125,-0.5052833557128906,0.27674105763435364,0.05040610209107399
1789062383449715000,10.04571484375,-0.47687727212905884,0.34155869483947754,0.016198329627513885
1789062383459676000,10.055676025390625,-0.4416266083717346,0.3515588641166687,-0.02113519236445427
1789062383469635800,10.0656357421875,-0.3960537910461426,0.2961595058441162,-0.05454960837960243
1789062383479596800,10.0755966796875,-0.3508357107639313,0.18190909922122955,-0.07513930648565292
1789062383489557000,10.085556884765625,-0.3315081000328064,-0.03360813483595848,-0.10320506989955902
1789062383499518000,10.09551806640625,-0.3497835099697113,-0.3482030928134918,-0.135147824883461
1789062383509479000,10.10547900390625,-0.4101768136024475,-0.6419557929039001,-0.15397529304027557
1789062383519439000,10.115439208984375,-0.47188785672187805,-0.8153284192085266,-0.13956652581691742
1789062383529399800,10.12539990234375,-0.5117908716201782,-0.8595631718635559,-0.09896264225244522
1789062383539359700,10.13535986328125,-0.5122992396354675,-0.7000579237937927,-0.008305449038743973
1789062383549321000,10.145321044921875,-0.45267391204833984,-0.33909499645233154,0.13063079118728638
1789062383559281000,10.155281005859376,-0.35017308592796326,0.11585360765457153,0.279649019241333
1789062383569242000,10.1652421875,-0.21020272374153137,0.526483416557312,0.3816547989845276
1789062383579202000,10.1752021484375,-0.06044119596481323,0.7161121964454651,0.4069247543811798
1789062383589162800,10.185162841796876,0.07005476951599121,0.749288022518158,0.41870126128196716
1789062383599124000,10.1951240234375,0.13664977252483368,0.6525455117225647,0.4204903841018677
1789062383609084000,10.205083984375,0.13257142901420593,0.46470919251441956,0.4213944673538208
1789062383619045000,10.215045166015624,0.07987013459205627,0.25594693422317505,0.42546218633651733
1789062383629005000,10.225005126953125,-0.006030611228197813,0.06054503843188286,0.4452245831489563
1789062383638965800,10.2349658203125,-0.12048448622226715,-0.1148877739906311,0.44896310567855835
1789062383648926000,10.244926025390624,-0.2393781989812851,-0.2409791797399521,0.42004066705703735
1789062383658887000,10.254886962890625,-0.33751434087753296,-0.2956642806529999,0.3568126857280731
1789062383668846800,10.264846923828125,-0.40634265542030334,-0.2836689054965973,0.2612684369087219
1789062383678808000,10.27480810546875,-0.4467731714248657,-0.21485520899295807,0.1579625904560089
1789062383688768800,10.284768798828125,-0.47044360637664795,-0.1022060289978981,0.06770489364862442
1789062383698728700,10.294728759765626,-0.48068585991859436,0.03282901644706726,0.0069384826347231865
1789062383708690000,10.30468994140625,-0.46690165996551514,0.16387784481048584,-0.023216675966978073
1789062383718649900,10.31464990234375,-0.4188670217990875,0.2763465940952301,-0.014798425137996674
1789062383728611000,10.324611083984376,-0.3542727530002594,0.34687283635139465,0.01747063361108303
1789062383738571000,10.334571044921875,-0.29932188987731934,0.37398114800453186,0.06279151141643524
1789062383748531700,10.34453173828125,-0.2593371868133545,0.35974061489105225,0.11444199830293655
1789062383758493000,10.354492919921874,-0.238822340965271,0.3312312066555023,0.17075799405574799
1789062383768452900,10.364452880859375,-0.23771768808364868,0.2935401201248169,0.22124329209327698
1789062383778414000,10.3744140625,-0.2514910399913788,0.2366025298833847,0.25238120555877686
1789062383788374000,10.3843740234375,-0.2726706266403198,0.16137461364269257,0.2569011449813843
1789062383798334700,10.394334716796875,-0.2920219302177429,0.08372935652732849,0.23328769207000732
1789062383808295000,10.404294921875,-0.3092462122440338,0.026363743469119072,0.19483374059200287
1789062383818256000,10.414255859375,-0.32514047622680664,0.01536888349801302,0.14931045472621918
1789062383828215800,10.4242158203125,-0.3374179005622864,0.03333660215139389,0.0995590016245842
1789062383838177000,10.434177001953126,-0.3394504189491272,0.06355282664299011,0.05522828549146652
1789062383848137700,10.4441376953125,-0.33404895663261414,0.10284934937953949,0.019850358366966248
1789062383858098000,10.454097900390625,-0.3297809660434723,0.13690185546875,-0.0028288555331528187
1789062383868058600,10.46405859375,-0.33166468143463135,0.15062882006168365,-0.012522037141025066
1789062383878018800,10.474018798828125,-0.3342684507369995,0.13902994990348816,-0.00929854717105627
1789062383887979800,10.483979736328125,-0.3333653509616852,0.13795039057731628,0.005110143218189478
1789062383897939700,10.493939697265626,-0.32630398869514465,0.16628243029117584,0.021027324721217155
1789062383907901000,10.50390087890625,-0.31750816106796265,0.20370341837406158,0.029033437371253967
1789062383917860900,10.51386083984375,-0.31549641489982605,0.22030237317085266,0.02123543620109558
1789062383927821800,10.52382177734375,-0.31626760959625244,0.20433881878852844,0.00025139516219496727
1789062383937782800,10.53378271484375,-0.32231590151786804,0.14167997241020203,-0.018985949456691742
1789062383947742700,10.54374267578125,-0.3273407816886902,0.05374935269355774,-0.022670049220323563
1789062383957704000,10.553703857421874,-0.33268946409225464,-0.03308914229273796,0.0056007360108196735
1789062383967663900,10.563663818359375,-0.3339504897594452,-0.10249596834182739,0.06452632695436478
1789062383977624800,10.573624755859376,-0.3258989453315735,-0.1623864620923996,0.12120266258716583
1789062383987584800,10.583584716796874,-0.3090920150279999,-0.22985252737998962,0.17220357060432434
1789062383997545700,10.593545654296875,-0.28798776865005493,-0.26438361406326294,0.21253500878810883
1789062384007507000,10.6035068359375,-0.2651658058166504,-0.26952046155929565,0.2394109070301056
1789062384017467000,10.613466796875,-0.23774351179599762,-0.23699583113193512,0.2640121281147003
1789062384027427600,10.623427490234375,-0.21692825853824615,-0.17342686653137207,0.2912026047706604
1789062384037387800,10.6333876953125,-0.22419708967208862,-0.12704898416996002,0.31167858839035034
1789062384047348700,10.6433486328125,-0.25863146781921387,-0.10457689315080643,0.3168639838695526
1789062384057308700,10.65330859375,-0.2980284094810486,-0.07831892371177673,0.3033868074417114
1789062384067270000,10.663269775390624,-0.32892587780952454,-0.06609755009412766,0.2578476071357727
1789062384077229800,10.673229736328125,-0.35805606842041016,-0.07256317883729935,0.1722107231616974
1789062384087190800,10.683190673828125,-0.390992134809494,-0.11180628091096878,0.05347485840320587
1789062384097151700,10.69315185546875,-0.4455070495605469,-0.20788781344890594,-0.1078871339559555
1789062384107111700,10.703111572265625,-0.5135505795478821,-0.3307000398635864,-0.2812481224536896
1789062384117073000,10.713072998046876,-0.5633266568183899,-0.37750110030174255,-0.40772750973701477
1789062384127032800,10.72303271484375,-0.5921630859375,-0.3354507386684418,-0.4779856204986572
1789062384136993800,10.732993896484375,-0.6019416451454163,-0.26690924167633057,-0.5077582001686096
1789062384146953700,10.74295361328125,-0.5946429967880249,-0.1814134269952774,-0.5063115358352661
1789062384156914700,10.752914794921875,-0.5283287167549133,-0.035263679921627045,-0.4458058774471283
1789062384166875000,10.762875,-0.42410752177238464,0.1444682627916336,-0.35027560591697693
1789062384176835800,10.7728359375,-0.3019741475582123,0.32264944911003113,-0.24395743012428284
1789062384186796800,10.782796875,-0.1867389678955078,0.42764100432395935,-0.14842747151851654
1789062384196756700,10.7927568359375,-0.09092030674219131,0.4508797526359558,-0.06330619007349014
1789062384206717700,10.8027177734375,-0.02502061426639557,0.3900875449180603,0.015221978537738323
1789062384216678000,10.812677978515625,0.005478438921272755,0.22236432135105133,0.05861019715666771
1789062384226638800,10.822638916015626,0.02262895554304123,0.0029506750870496035,0.066159188747406
1789062384236598800,10.832598876953124,0.0277576707303524,-0.2323388010263443,0.04184160381555557
1789062384246559700,10.842559814453125,0.030490322038531303,-0.4247845709323883,0.0017528124153614044
1789062384256520700,10.852520751953126,0.03697671741247177,-0.5289415717124939,-0.013978480361402035
1789062384266480600,10.862480712890624,0.04293106123805046,-0.5413211584091187,0.0018540089949965477
1789062384276441900,10.87244189453125,0.038510747253894806,-0.4832671880722046,0.02830745279788971
1789062384286401800,10.88240185546875,0.03441185876727104,-0.37205982208251953,0.06671188026666641
1789062384296362800,10.89236279296875,0.02369476668536663,-0.272164911031723,0.09129232168197632
1789062384306322700,10.90232275390625,0.0049519287422299385,-0.23376168310642242,0.08219393342733383
1789062384316283600,10.91228369140625,-0.011967400088906288,-0.1887982040643692,0.060789309442043304
1789062384326243800,10.922243896484375,-0.014096546918153763,-0.13268500566482544,0.03628130257129669
1789062384336204800,10.932204833984375,0.005059571471065283,-0.06129099056124687,0.025518402457237244
1789062384346166000,10.942166015625,0.04327038303017616,0.030613936483860016,0.0465843491256237
1789062384356126000,10.9521259765625,0.0876101478934288,0.12835407257080078,0.08665186911821365
1789062384366086700,10.962086669921876,0.12338484078645706,0.1949535310268402,0.12483400106430054
1789062384376046800,10.972046875,0.14869260787963867,0.20526422560214996,0.14542928338050842
1789062384386007800,10.9820078125,0.15517686307430267,0.17396917939186096,0.15087853372097015
1789062384395967700,10.9919677734375,0.14306721091270447,0.10818856954574585,0.14892269670963287
1789062384405929000,11.001928955078125,0.11499243974685669,0.024243207648396492,0.14477558434009552
1789062384415889000,11.011888916015625,0.07078210264444351,-0.06596524268388748,0.13518474996089935
1789062384425849600,11.021849609375,0.02287394367158413,-0.10472109168767929,0.1198316365480423
1789062384435810800,11.031810791015625,-0.00913325697183609,-0.06989786028862,0.10666203498840332
1789062384445770800,11.041770751953125,-0.01627134531736374,0.014327126555144787,0.08157243579626083
1789062384455732000,11.05173193359375,0.00151297845877707,0.1232602670788765,0.045947860926389694
1789062384465692000,11.06169189453125,0.03795969858765602,0.23156169056892395,0.009255392476916313
1789062384475652600,11.071652587890625,0.08327179402112961,0.29458194971084595,-0.02746959961950779
1789062384485612800,11.08161279296875,0.11343717575073242,0.31522640585899353,-0.04530547559261322
1789062384495573800,11.09157373046875,0.12681689858436584,0.32236847281455994,-0.030294034630060196
1789062384505535000,11.101534912109376,0.12127828598022461,0.3140051066875458,0.007490211632102728
1789062384515495000,11.111494873046874,0.11042457818984985,0.29211392998695374,0.059895094484090805
1789062384525455600,11.12145556640625,0.10415148735046387,0.2641269266605377,0.11464029550552368
1789062384535415800,11.131415771484376,0.11506138741970062,0.2262469232082367,0.16732266545295715
1789062384545376800,11.141376708984374,0.1481274962425232,0.21300485730171204,0.22240033745765686
1789062384555336700,11.151336669921875,0.18426552414894104,0.21937541663646698,0.26992952823638916
1789062384565298000,11.1612978515625,0.21952414512634277,0.2152310013771057,0.29571858048439026
1789062384575258600,11.171258544921875,0.2460779994726181,0.18353672325611115,0.30407264828681946
1789062384585218800,11.18121875,0.26244819164276123,0.13608615100383759,0.2936597466468811
1789062384595179800,11.1911796875,0.2730896472930908,0.10213325917720795,0.2744780480861664
1789062384605139700,11.2011396484375,0.2701268792152405,0.06902004778385162,0.2506329119205475
1789062384615101000,11.211100830078125,0.24356584250926971,0.022973455488681793,0.2124652862548828
1789062384625060900,11.221060791015624,0.20681369304656982,-0.038243506103754044,0.1587911695241928
1789062384635021600,11.231021484375,0.17538945376873016,-0.10413890331983566,0.09749797731637955
1789062384644981800,11.240981689453125,0.15074507892131805,-0.17333188652992249,0.04593541845679283
1789062384654942700,11.250942626953124,0.12383969873189926,-0.20960280299186707,0.026629894971847534
1789062384664904000,11.260904052734375,0.0942445620894432,-0.192155122756958,0.04365578666329384
1789062384674863900,11.27086376953125,0.06264375895261765,-0.12918387353420258,0.09788094460964203
1789062384684824800,11.280824951171875,0.047509029507637024,0.005694991908967495,0.18602539598941803
1789062384694784800,11.29078466796875,0.05400101840496063,0.21337415277957916,0.29820919036865234
1789062384704745700,11.300745849609376,0.0702635794878006,0.4551633894443512,0.38864731788635254
1789062384714705700,11.31070556640625,0.09560675173997879,0.6317434906959534,0.403103768825531
1789062384724667000,11.3206669921875,0.13081273436546326,0.6551924347877502,0.3251883387565613
1789062384734627800,11.3306279296875,0.15541128814220428,0.5361648797988892,0.19631288945674896
1789062384744587800,11.340587890625,0.1309615522623062,0.3033614158630371,0.04227132350206375
1789062384754548700,11.350548828125,0.07432571053504944,0.0321248359978199,-0.10823403298854828
1789062384764508700,11.3605087890625,0.010067414492368698,-0.2929162383079529,-0.2590336501598358
1789062384774470000,11.370469970703125,-0.04423150792717934,-0.5908616781234741,-0.38057661056518555
1789062384784429800,11.380429931640625,-0.10017785429954529,-0.7819327116012573,-0.45117855072021484
1789062384794390800,11.390390869140624,-0.14668090641498566,-0.8333777785301208,-0.4647713005542755
1789062384804351000,11.40035107421875,-0.118383027613163,-0.6430386900901794,-0.3792908191680908
1789062384814311700,11.410311767578126,-0.025583842769265175,-0.25758180022239685,-0.21147440373897552
1789062384824273000,11.42027294921875,0.1302257478237152,0.24408577382564545,-0.014541476033627987
1789062384834232800,11.43023291015625,0.30359330773353577,0.6347435712814331,0.13746137917041779
1789062384844193800,11.44019384765625,0.45471009612083435,0.8193570971488953,0.21126103401184082
1789062384854154000,11.450154052734375,0.5747094750404358,0.8240871429443359,0.22798088192939758
1789062384864114700,11.46011474609375,0.6182177662849426,0.6448541283607483,0.19013763964176178
1789062384874075100,11.4700751953125,0.5922048091888428,0.3454152047634125,0.12697145342826843
1789062384884036000,11.4800361328125,0.5213863253593445,0.0033235587179660797,0.07267628610134125
1789062384893997300,11.489997314453126,0.42709100246429443,-0.305319219827652,0.060150910168886185
1789062384903957200,11.499957275390624,0.33488088846206665,-0.4970608651638031,0.09603863954544067
1789062384913918200,11.509918212890625,0.2513521611690521,-0.5497874617576599,0.15710145235061646
1789062384923878100,11.519878173828126,0.18627968430519104,-0.5102216601371765,0.2091735601425171
1789062384933839000,11.529839111328124,0.15533694624900818,-0.40685534477233887,0.24883681535720825
1789062384943799300,11.53979931640625,0.15271218121051788,-0.26654526591300964,0.260703980922699
1789062384953760300,11.54976025390625,0.159728541970253,-0.10666745901107788,0.2410687655210495
1789062384963720200,11.55972021484375,0.17671120166778564,0.05605600029230118,0.19005492329597473
1789062384973681200,11.56968115234375,0.2126806527376175,0.20259696245193481,0.12783761322498322
1789062384983642000,11.57964208984375,0.2632215917110443,0.28806591033935547,0.08046618849039078
1789062384993602300,11.589602294921875,0.2919424772262573,0.3040645718574524,0.06764785945415497
1789062385003563300,11.599563232421875,0.28712666034698486,0.28627464175224304,0.09890298545360565
1789062385013523200,11.609523193359376,0.2626791298389435,0.24185101687908173,0.16171416640281677
1789062385023484200,11.619484130859375,0.22255995869636536,0.18261581659317017,0.2266024649143219
1789062385033444000,11.629444091796875,0.177046000957489,0.12461163848638535,0.26612165570259094
1789062385043405000,11.639405029296874,0.1330346167087555,0.0642605796456337,0.27046671509742737
1789062385053366300,11.6493662109375,0.08479411900043488,-0.0012310775928199291,0.24283534288406372
1789062385063326200,11.659326171875,0.027432532981038094,-0.05638856068253517,0.19362105429172516
1789062385073287200,11.669287109375,-0.026362521573901176,-0.0841301754117012,0.14302897453308105
1789062385083247000,11.6792470703125,-0.060325801372528076,-0.07436215132474899,0.10075335204601288
1789062385093208000,11.6892080078125,-0.08063160628080368,-0.04066837206482887,0.06622839719057083
1789062385103168300,11.699168212890624,-0.10055659711360931,-0.01700715348124504,0.022985469549894333
1789062385113129200,11.709129150390625,-0.11623116582632065,-0.005904434248805046,-0.022779621183872223
1789062385123090200,11.719090087890624,-0.1306324452161789,0.013629655353724957,-0.06863050907850266
1789062385133050000,11.729050048828125,-0.14827561378479004,0.04027378186583519,-0.11972511559724808
1789062385143011000,11.739010986328125,-0.16846345365047455,0.047406867146492004,-0.1825070083141327
1789062385152971300,11.74897119140625,-0.1879173219203949,0.03216133266687393,-0.23139731585979462
1789062385162932200,11.75893212890625,-0.20199693739414215,-0.0021442610304802656,-0.24813120067119598
1789062385172892200,11.76889208984375,-0.22023266553878784,-0.03449048474431038,-0.220984548330307
1789062385182853000,11.77885302734375,-0.22909648716449738,-0.024974195286631584,-0.1621076762676239
1789062385192813000,11.78881298828125,-0.22056345641613007,0.025497501716017723,-0.09269984811544418
1789062385202774000,11.79877392578125,-0.19031500816345215,0.0891265720129013,-0.02828395552933216
1789062385212735200,11.8087353515625,-0.14362606406211853,0.14932388067245483,0.029038190841674805
1789062385222695200,11.818695068359375,-0.10460596531629562,0.18386290967464447,0.07919974625110626
1789062385232656100,11.82865625,-0.08385621011257172,0.16178716719150543,0.11405173689126968
1789062385242616000,11.838615966796874,-0.08695604652166367,0.09053387492895126,0.12792125344276428
1789062385252577000,11.848576904296875,-0.11048027873039246,0.0008085110457614064,0.1392037272453308
1789062385262537200,11.858537109375,-0.14572516083717346,-0.08039851486682892,0.1519661247730255
1789062385272498200,11.868498291015625,-0.19400908052921295,-0.14555861055850983,0.16600871086120605
1789062385282459100,11.878459228515625,-0.24454788863658905,-0.17831040918827057,0.17077511548995972
1789062385292419000,11.888419189453124,-0.2858055531978607,-0.17675885558128357,0.16081702709197998
1789062385302380000,11.898380126953125,-0.30069229006767273,-0.14999815821647644,0.1288681924343109
1789062385312340200,11.90834033203125,-0.293794184923172,-0.10762006789445877,0.09036579728126526
1789062385322301200,11.91830126953125,-0.265780508518219,-0.02636275254189968,0.07367497682571411
1789062385332261000,11.92826123046875,-0.24040192365646362,0.04410076141357422,0.09077593684196472
1789062385342222300,11.938222412109376,-0.23799225687980652,0.06961886584758759,0.11262305825948715
1789062385352183000,11.94818310546875,-0.26205259561538696,0.011654894798994064,0.09754983335733414
1789062385362143200,11.958143310546875,-0.31224489212036133,-0.11930245161056519,0.02735739015042782
1789062385372104200,11.968104248046876,-0.38183996081352234,-0.2654721736907959,-0.08729702234268188
1789062385382064000,11.978064208984375,-0.47734490036964417,-0.3729940950870514,-0.2302943766117096
1789062385392025300,11.988025390625,-0.5823981165885925,-0.40053436160087585,-0.3799395263195038
1789062385401985300,11.9979853515625,-0.6769551038742065,-0.3967492878437042,-0.5310310125350952
1789062385411946000,12.007946044921875,-0.752303421497345,-0.40741097927093506,-0.6759663224220276
1789062385421906200,12.01790625,-0.8016172051429749,-0.3945210874080658,-0.7823755145072937
1789062385431867100,12.0278671875,-0.7928255796432495,-0.29490846395492554,-0.8171588182449341
1789062385441828400,12.037828369140625,-0.7039462924003601,-0.07654799520969391,-0.7677650451660156
1789062385451788300,12.047788330078125,-0.5269297361373901,0.24203425645828247,-0.630317211151123
1789062385461749000,12.0577490234375,-0.2964741587638855,0.5597101449966431,-0.42549580335617065
1789062385471709200,12.067709228515625,-0.08419039100408554,0.7677693367004395,-0.20396848022937775
1789062385481670100,12.077670166015626,0.05516400560736656,0.8171963095664978,-0.009438706561923027
1789062385491630000,12.087630126953124,0.1336420476436615,0.7195059657096863,0.139177143573761
1789062385501591300,12.09759130859375,0.15722379088401794,0.47010377049446106,0.21635816991329193
1789062385511552000,12.107552001953126,0.1320931315422058,0.14022760093212128,0.24098680913448334
1789062385521512200,12.11751220703125,0.07397577911615372,-0.19340680539608002,0.22989143431186676
1789062385531473200,12.12747314453125,-0.001846020226366818,-0.4604041278362274,0.21716950833797455
1789062385541433000,12.13743310546875,-0.06873607635498047,-0.5808414220809937,0.21891507506370544
1789062385551394300,12.147394287109375,-0.11423724889755249,-0.5615929365158081,0.2261711210012436
1789062385561354200,12.157354248046875,-0.13581305742263794,-0.459185391664505,0.2126588076353073
1789062385571315000,12.16731494140625,-0.14106081426143646,-0.2997067868709564,0.18223218619823456
1789062385581276200,12.177276123046875,-0.14128533005714417,-0.09563256800174713,0.1320710927248001
1789062385591236000,12.187236083984375,-0.14502175152301788,0.08591458946466446,0.06696639955043793
1789062385601197300,12.197197265625,-0.1368439793586731,0.208139568567276,0.0015469072386622429
1789062385611157200,12.2071572265625,-0.11498238891363144,0.25923100113868713,-0.04250926896929741
1789062385621118000,12.217117919921876,-0.07994720339775085,0.24893608689308167,-0.0426754504442215
1789062385631078100,12.227078125,-0.046433717012405396,0.2245364636182785,0.006780515890568495
1789062385641039000,12.2370390625,-0.02576116845011711,0.19886592030525208,0.08519862592220306
1789062385650999000,12.2469990234375,-0.009247439913451672,0.1605379730463028,0.1523829847574234
1789062385660960300,12.256960205078125,0.0015833978541195393,0.09432186186313629,0.18795056641101837
1789062385670921000,12.2669208984375,0.01508189644664526,0.01706276461482048,0.18210360407829285
