time,seconds_elapsed,z,y,x
1789061758004257500,0.077257568359375,-0.19832535456120967,-0.10698526066504419,0.047715298173250625
1789061758014218500,0.087218505859375,-0.14744973832666874,-0.07779745236448943,0.06049589669071138
1789061758024178400,0.097178466796875,-0.13758826952576636,-0.11766316041536629,0.04444792127460241
1789061758034139600,0.1071396484375,-0.11173895799815654,-0.22328414698988197,0.023666661125747484
1789061758044099600,0.117099609375,-0.007127659922838211,-0.26886538314335046,-0.02020785330822691
1789061758054060500,0.127060546875,0.12139935126900672,-0.3181302762456238,0.03216890647057444
1789061758064020700,0.137020751953125,0.17456629331111906,-0.33433271157108246,0.13240134100769646
1789061758073981400,0.1469814453125,0.15394553008675574,-0.30717633603289723,0.21946115463562307
1789061758083941400,0.15694140625,0.12808452812135218,-0.2328205485548824,0.29510270760785784
1789061758093902600,0.166902587890625,-0.09090952045917511,-0.3763277598008513,0.1692895402182825
1789061758103862500,0.176862548828125,-0.07818447892069816,-0.3115472445935011,0.08932636118726804
1789061758113823500,0.186823486328125,0.17612579771280287,-0.31381475113406776,0.06980108331572264
1789061758123783700,0.19678369140625,0.2221662488758564,-0.25417072203233837,0.053655711939744645
1789061758133744400,0.206744384765625,0.2601408824831247,-0.3394976200535893,0.270169013087824
1789061758143704300,0.216704345703125,0.544762710750103,-0.32080197967290874,0.3487535241767764
1789061758153665500,0.22666552734375,0.8490893564403057,0.3660634092874825,-0.2212685693837702
1789061758163625500,0.23662548828125,0.3201344556748867,0.232031955460459,-0.04722480210941284
1789061758173586700,0.246586669921875,0.5391466244339943,-0.18471008618474005,0.15533026244342327
1789061758183546600,0.256546630859375,0.5845622216969728,-0.031178982117772102,0.4440005258509889
1789061758193507300,0.26650732421875,0.4897416652739048,0.08623392986357212,0.5370113294383511
1789061758203467500,0.276467529296875,0.24472937833964822,0.014637597161531447,0.3635955213366076
1789061758213428500,0.286428466796875,0.09826572844088077,-0.026728286319226024,0.22227855014391243
1789061758223388400,0.296388427734375,0.07720540475547313,-0.08550897658988833,0.1677115685781464
1789061758233349600,0.306349609375,0.14759996045231819,-0.1633775214292109,0.12409030738603323
1789061758243309600,0.3163095703125,0.19232114571034908,-0.21609277418106793,0.08850848719943315
1789061758253270500,0.3262705078125,0.17533318603038786,-0.2488331603966653,0.052503509697318075
1789061758263230500,0.33623046875,0.13542787662148476,-0.23245222669914364,0.014656630655564367
1789061758273191400,0.34619140625,0.14511340433359146,-0.2258171725988388,-0.006008848493359983
1789061758283151600,0.356151611328125,0.1368850896924734,-0.2175764368675649,-0.04892013478521257
1789061758293112600,0.366112548828125,0.11139935078024864,-0.24582243427336214,-0.021822467164322734
1789061758303072500,0.376072509765625,0.1392424664735794,-0.29922888415977356,-0.016742314355820416
1789061758313033500,0.386033447265625,0.12098258716166019,-0.31015652088746426,-0.044092860759235915
1789061758322993400,0.395993408203125,-0.011257891595363617,-0.3293967895388603,-0.09540496871490031
1789061758332954400,0.405954345703125,-0.06935469125509262,-0.34689050678387284,-0.12131152685508131
1789061758342914600,0.41591455078125,-0.11382044044733047,-0.3393406759262085,-0.10490765067338943
1789061758352875500,0.42587548828125,-0.12384265276789665,-0.35431378865242,-0.0800139045712538
1789061758362835500,0.43583544921875,-0.0942301893144846,-0.4115422079797834,-0.022711232697591184
1789061758372796400,0.44579638671875,-0.05103869784176349,-0.4939852941930294,-0.0022738997487351297
1789061758382756400,0.45575634765625,-0.012902151671051978,-0.5781020127069205,-0.020082126303017138
1789061758392717600,0.465717529296875,0.005401566782593727,-0.6410024132560939,-0.06478072526990436
1789061758402677500,0.475677490234375,0.13258183954060077,-0.7131975155688822,-0.09623351022722199
1789061758412638500,0.485638427734375,0.2787105583965778,-0.7626391534775495,-0.09178036674326286
1789061758422598700,0.4955986328125,0.39782793620824813,-0.8220732661556452,-0.12122533727581612
1789061758432559600,0.5055595703125,0.4251794689923525,-0.9159780229080468,-0.15802457956131546
1789061758442519600,0.51551953125,0.4974491709113121,-1.0252589202295987,-0.19385363424094393
1789061758452480500,0.52548046875,0.39211949543356894,-1.0532001625351608,-0.21929902287647127
1789061758462440400,0.5354404296875,0.2948457006394863,-1.058089688142389,-0.260391203982383
1789061758472401700,0.545401611328125,0.26809914801120754,-1.053901369607076,-0.2627161397986114
1789061758482361600,0.555361572265625,0.2497100893616676,-1.0221253714442253,-0.2008284782222472
1789061758492322600,0.565322509765625,0.27033494423925875,-1.024478802702576,-0.16947054107468573
1789061758502282500,0.575282470703125,0.29613398688435555,-1.0619752243388443,-0.2000729836798273
1789061758512243500,0.585243408203125,0.30230653803944585,-1.1236026092775164,-0.24700251090340314
1789061758522204700,0.59520458984375,0.28222528851926326,-1.1469590080108494,-0.300815641894564
1789061758532164600,0.60516455078125,0.2742944955199957,-1.1350338846784085,-0.25839694315893574
1789061758542125600,0.61512548828125,0.2552215462595224,-1.1301032233431936,-0.19015384814124553
1789061758552085800,0.625085693359375,0.24673311937749384,-1.120909570801258,-0.14405238750595598
1789061758562046500,0.63504638671875,0.2571311792731285,-1.1235662227898835,-0.04738352720192633
1789061758572006400,0.64500634765625,0.2846685900181532,-1.141119195941463,0.021371800787374377
1789061758581966800,0.654966796875,0.30758886235654354,-1.207837985735014,0.024523780278582125
1789061758591926800,0.6649267578125,0.34206863958537576,-1.2904764483898878,-0.0249796160209924
1789061758601887700,0.6748876953125,0.3262251737654209,-1.3387547416076064,-0.09570446311812847
1789061758611848000,0.684847900390625,0.3471031266212463,-1.3446373699054122,-0.06461589923016726
1789061758621808600,0.69480859375,0.40396366248428817,-1.3215540159597992,-0.052808118667080996
1789061758631768600,0.7047685546875,0.40267420719563957,-1.2885403657607732,-0.09031458677332847
1789061758641729800,0.714729736328125,0.47289691345691676,-1.2964753965437412,-0.07918994790250435
1789061758651689700,0.724689697265625,0.5622580354303122,-1.3356155667990446,-0.049222844058834016
1789061758661650700,0.734650634765625,0.6474211211919784,-1.3378054780587554,-0.05325580763565376
1789061758671611000,0.74461083984375,0.6813578775852919,-1.3628408428549765,-0.10536155018704012
1789061758681571800,0.75457177734375,0.6492980209797621,-1.383959326468408,-0.1656257022147998
1789061758691531800,0.76453173828125,0.6266372763603926,-1.384735279276967,-0.24608201679131014
1789061758701492700,0.77449267578125,0.6747808372825383,-1.3936577136620878,-0.24479835192263125
1789061758711452700,0.78445263671875,0.6353858154833316,-1.4075918387293815,-0.23136897977339102
1789061758721414000,0.794413818359375,0.6028495735377073,-1.4620017665699123,-0.2550843297459185
1789061758731373800,0.804373779296875,0.562823268097639,-1.527305721129477,-0.24917444811500608
1789061758741334800,0.814334716796875,0.49828153008222575,-1.5258850406765936,-0.278562966619432
1789061758751295000,0.824294921875,0.4528624256879091,-1.5139663470849394,-0.30924777201209214
1789061758761255700,0.834255615234375,0.43951720642447467,-1.4790579691804944,-0.2967606856816448
1789061758771215600,0.844215576171875,0.43072599720358845,-1.444893103119731,-0.32722748267576096
1789061758781176800,0.8541767578125,0.36508360446989535,-1.4143199779406188,-0.35426417735703286
1789061758791136800,0.86413671875,0.3529518526494503,-1.3393588449805973,-0.3329286169268191
1789061758801098000,0.874097900390625,0.32698563674390313,-1.28941393372491,-0.2579574374968186
1789061758811058000,0.884057861328125,0.21846505627036095,-1.2569302987493574,-0.24951546183871104
1789061758821018600,0.8940185546875,0.032865327769517894,-1.2078287795152514,-0.3144572137560695
1789061758830978800,0.903978759765625,-0.18442600854635238,-1.1125414823632687,-0.3891860723301768
1789061758840939800,0.913939697265625,-0.33016777391135693,-1.0152158843167125,-0.40693577363025396
1789061758850899700,0.923899658203125,-0.44807168428003785,-0.9101989280499517,-0.37028051552586255
1789061758860861000,0.93386083984375,-0.4943722476840019,-0.8250026706710457,-0.3129873603992164
1789061758870820900,0.94382080078125,-0.5912514902025461,-0.7854334613487124,-0.28430856106672436
1789061758880781800,0.95378173828125,-0.68085752684772,-0.7674318676467985,-0.24370986256618052
1789061758890741800,0.96374169921875,-0.7239777066498995,-0.732498720627278,-0.2358032176274806
1789061758900702700,0.97370263671875,-0.8552695063799619,-0.6230844061844051,-0.2208784010224044
1789061758910664000,0.983663818359375,-1.0493898104667663,-0.5220801926903427,-0.16341535095525905
1789061758920623900,0.993623779296875,-1.1283020191401243,-0.4092869033336639,-0.07423303788118064
1789061758930584600,1.00358447265625,-1.1813210771441458,-0.27333039972819384,-0.00786291082825046
1789061758940544800,1.013544677734375,-0.9124018449217081,-0.3602801497109234,-0.007450288606481626
1789061758950505700,1.023505615234375,-0.300823606005311,-0.8030486860815436,-0.19934055948574095
1789061758960465700,1.033465576171875,0.007272036829590797,-1.1633795430663973,-0.5491906467275693
1789061758970427000,1.043427001953125,-0.4732493801563978,-1.029648314294964,-0.4076361404519528
1789061758980386800,1.05338671875,-1.3190455402702093,-0.47927302436009045,0.3811931008148938
1789061758990347800,1.06334765625,-2.299809558278322,-0.09417202938646077,0.6226028332125395
1789061759000307700,1.0733076171875,-2.988571574640274,0.11500497405678033,0.7938204736828803
1789061759010268700,1.0832685546875,-2.789239673385024,0.6355928092975169,1.218745310327038
1789061759020228900,1.093228759765625,-2.3159528838276864,0.8810561279349028,1.532860578777641
1789061759030189800,1.10318994140625,-2.13159000364542,0.8378807838793844,1.5465379526048897
1789061759040149800,1.113149658203125,-1.533963717713952,0.8278969308078289,1.3200005029074846
1789061759050110700,1.12311083984375,-0.8484469668835402,0.8503590841151774,0.9725135646004229
1789061759060070700,1.133070556640625,-0.27625205932855607,0.6669486092869192,0.6058827306885272
1789061759070032000,1.143031982421875,0.05186462727189064,0.3440274455029517,0.14506357384249566
1789061759079991800,1.15299169921875,0.43675183336436746,0.11988076339960098,-0.16990078571811318
1789061759089952800,1.162952880859375,0.9122305800080299,0.0010585691422224045,-0.2035263938030228
1789061759099913000,1.172912841796875,1.1467039372712373,-0.10962832251973449,-0.24362415704410523
1789061759109873700,1.182873779296875,1.3233014441490172,-0.21633681207001207,-0.24955906351841986
1789061759119833600,1.19283349609375,1.4573042564034462,-0.38897790947221217,-0.25188113152412694
1789061759129794800,1.202794921875,1.6088982549279927,-0.6278577580660581,-0.175544636823982
1789061759139754800,1.212754638671875,1.7401584904760121,-0.8261205687850713,0.02391805120408535
1789061759149715700,1.2227158203125,1.8161118493437767,-1.00343579547815,0.14619758284110576
1789061759159676000,1.232676025390625,1.8276766149312256,-1.1310285945598035,0.26648097222484646
1789061759169636600,1.24263671875,1.7784750693887472,-1.1057912774506955,0.4473834097549319
1789061759179596500,1.252596435546875,1.7587357651740312,-1.0348317082822323,0.64611508009471
1789061759189557800,1.262557861328125,1.675026969873905,-0.8882199551496655,0.7992699712604284
1789061759199518700,1.272518798828125,1.5350906759172678,-0.7063411468680948,0.984047496658191
1789061759209479000,1.28247900390625,1.4703496159374714,-0.5436976388018578,1.0967699858009814
1789061759219439900,1.29243994140625,1.3765771072626114,-0.3631179304201156,1.1564176681645213
1789061759229399800,1.30239990234375,1.083734563139081,-0.16142814092710614,1.0683487048935145
1789061759239360800,1.31236083984375,0.6964514018207788,-0.021566154315695165,0.784020014354214
1789061759249320700,1.32232080078125,0.4182160597205162,0.10608093223646282,0.5768415277844294
1789061759259282000,1.332281982421875,0.3048644058287144,0.19782778030261397,0.3997578813575208
1789061759269241900,1.342241943359375,0.3093190471500158,0.21710765031203627,0.3453571597367525
1789061759279202800,1.352202880859375,0.3290945917218923,0.17591208189688623,0.39410489709712565
1789061759289162800,1.362162841796875,0.3539396946430206,0.12043065236732363,0.4150220859847963
1789061759299123700,1.372123779296875,0.3572171088784933,-0.004035246865451336,0.4342475223932415
1789061759309083600,1.382083740234375,0.37604105181396,-0.17767171198055148,0.5139087958682328
1789061759319044900,1.392044921875,0.49166006611585616,-0.30114443545751274,0.5950543165516108
1789061759329004800,1.4020048828125,0.6146399645745754,-0.434054995495826,0.6623097705051303
1789061759338965800,1.4119658203125,0.7139677692890167,-0.5383180646553636,0.6604403233714401
1789061759348926000,1.421926025390625,0.7216150691717863,-0.6681530166406184,0.5912482022669165
1789061759358886700,1.43188671875,0.6642325552612542,-0.7465253462836146,0.5741084130261093
1789061759368846600,1.4418466796875,0.6193360134363174,-0.835267167314887,0.5528948350077495
1789061759378807800,1.451807861328125,0.5722808322727679,-0.8945209549900144,0.5512839292123913
1789061759388767700,1.461767822265625,0.5220628031641245,-0.9504166644088924,0.5394707418218255
1789061759398729000,1.47172900390625,0.5177782577127218,-1.0348515089612453,0.5234923975758254
1789061759408689000,1.48168896484375,0.4653104038506746,-1.0680129701331258,0.46470783484764394
1789061759418649600,1.491649658203125,0.37176293610334393,-1.0701070928681642,0.41615890799500044
1789061759428609800,1.50160986328125,0.3677373338490724,-1.0455689370043575,0.4533404184632003
1789061759438570800,1.51157080078125,0.3226169201403856,-0.9731760470971464,0.5237973353391513
1789061759448532000,1.521531982421875,0.14257774837613105,-0.9257656958203763,0.5029257026262581
1789061759458492000,1.531491943359375,-0.10166998392641544,-0.887826791113615,0.4046558825321495
1789061759468452600,1.54145263671875,-0.21771453016400336,-0.7911123107027263,0.3411580275464803
1789061759478412800,1.551412841796875,-0.3250169670194387,-0.6547230417031794,0.3538120496753603
1789061759488373800,1.561373779296875,-0.44433308227360246,-0.5763458166893571,0.31468970733769236
1789061759498333700,1.571333740234375,-0.6630927375763654,-0.549087588211894,0.218878185382206
1789061759508295000,1.581294921875,-0.8897270717769861,-0.4971198658917099,0.12255180923976003
1789061759518254800,1.5912548828125,-1.0528373205721377,-0.41728162841461597,0.0645672195165418
1789061759528215800,1.6012158203125,-1.0591074868828059,-0.34572343576587733,0.11026957956533878
1789061759538175700,1.61117578125,-0.941727308127284,-0.4073109270855784,-0.05591611288608983
1789061759548136700,1.62113671875,-0.5890186165839433,-0.8155489789534359,-0.5465999361146241
1789061759558097000,1.631096923828125,-0.0658913990586996,-1.4095863735474645,-1.1685167598243802
1789061759568057900,1.641057861328125,0.1770440816015005,-1.6339777511268854,-1.50457936392799
1789061759578018000,1.65101806640625,-0.4213666327059269,-1.1740617536656557,-0.973483651741594
1789061759587978800,1.660978759765625,-1.4452905780047178,-0.34725670974776146,-0.3603193857427686
1789061759597939000,1.67093896484375,-3.1899002026706933,0.2885121137037873,-0.6666947075910866
1789061759607900000,1.68089990234375,-4.350791655248403,0.5561264008074999,-1.0022321918420494
1789061759617859800,1.69085986328125,-4.0831706461429595,0.921319457001239,-0.5689924217192456
1789061759627821000,1.700821044921875,-3.877348798346519,1.413435596321523,-0.017159188061021267
1789061759637781800,1.71078173828125,-3.2910762656003234,1.4549888190679252,0.45128863703254607
1789061759647741700,1.72074169921875,-2.3329186316758395,1.484134687922895,0.7650571744047104
1789061759657703000,1.730702880859375,-1.27719318844676,1.5089964497178792,0.7412987707417458
1789061759667662800,1.740662841796875,-0.31719957126677034,1.354633863262832,0.45739886354114856
1789061759677624000,1.7506240234375,0.5175274978220462,1.0641229769572615,0.039176849003881214
1789061759687584000,1.760583984375,1.2323597749859094,0.8126262233745306,-0.15710826843399553
1789061759697544700,1.770544677734375,1.4780126979112624,0.6139592888340354,-0.3590754866288975
1789061759707505000,1.7805048828125,1.5207383254379032,0.5199046022169291,-0.7224975510947406
1789061759717465900,1.7904658203125,1.6175819121211765,0.385327058814466,-0.8733503758631647
1789061759727425800,1.80042578125,1.7732184640347957,0.2303085657339543,-0.9401659040294587
1789061759737387000,1.810386962890625,1.9893115304768085,0.12331358739249408,-0.9476284219298511
1789061759747347000,1.820346923828125,2.15958392598629,-0.007510156434401869,-0.8374724953394382
1789061759757308000,1.830307861328125,2.204188791388273,-0.1663586561318487,-0.6652999652970581
1789061759767267800,1.840267822265625,2.0759049413025377,-0.28270415807738897,-0.5910547255214303
1789061759777228800,1.850228759765625,1.8726783706963062,-0.34883754919841886,-0.5684064750574529
1789061759787189000,1.86018896484375,1.7811615319937466,-0.3291496098447591,-0.43614447858836497
1789061759797150000,1.87014990234375,1.5252625248640774,-0.313774272993207,-0.3081779508234933
1789061759807110000,1.88010986328125,1.2346201211333274,-0.29851255258396264,-0.23653766938187182
1789061759817070800,1.89007080078125,0.9318336906224489,-0.22202647507898507,-0.12094974433798342
1789061759827031800,1.90003173828125,0.6668792703777551,-0.1306141196642071,-0.029685784417949616
1789061759836991700,1.90999169921875,0.5260632709771395,-0.10625073584541678,0.030917554702609776
1789061759846953000,1.919952880859375,0.3461895189076662,-0.127078712079674,0.051088893659040326
1789061759856913000,1.929912841796875,0.3172843269407749,-0.17507438896372912,0.03652074500452727
1789061759866873900,1.939873779296875,0.29027590850591656,-0.25408297068364916,-0.05171354662971571
1789061759876833800,1.949833740234375,0.2005798554897308,-0.3497346441686153,-0.21970610584001987
1789061759886794800,1.959794677734375,0.3300888634562492,-0.37338293852061033,-0.2631411968102679
1789061759896755000,1.9697548828125,0.5374468347787856,-0.36973566805943847,-0.26471995390169323
1789061759906716000,1.9797158203125,0.6573346124410628,-0.40739699793383477,-0.30860227718278765
1789061759916675800,1.98967578125,0.6573328588753938,-0.5051681477908044,-0.36416349395029246
1789061759926637000,1.999636962890625,0.7789373773276805,-0.6291980667591095,-0.38751010194197294
1789061759936597000,2.009596923828125,0.9354629870355129,-0.7120433040324599,-0.31212519061192867
1789061759946558000,2.019557861328125,1.0393857183247803,-0.7374126500234007,-0.170172442266345
1789061759956518000,2.029517822265625,1.043785999110341,-0.7774743190377951,-0.15969510658942163
1789061759966478800,2.039478759765625,0.9422206446021795,-0.8250713519930839,-0.27480858252197504
1789061759976439000,2.04943896484375,0.9066104020386934,-0.8850765425574034,-0.3776280287444591
1789061759986400000,2.05939990234375,0.9775596690088509,-0.9247978006362915,-0.36057993637509644
1789061759996360700,2.069360595703125,0.993348774293065,-0.9318949192903936,-0.3574182209411636
1789061760006321000,2.07932080078125,0.9175625886857509,-0.9521247104357927,-0.3416734662553295
1789061760016281900,2.08928173828125,0.9337398165047168,-1.0557165292702615,-0.2653837150400504
1789061760026241800,2.09924169921875,0.9312246188133955,-1.0833774933297187,-0.17716949807945637
1789061760036203000,2.109203125,0.9416776237666606,-1.0766438742257654,-0.12999766826629638
1789061760046163000,2.119162841796875,0.8602940565437078,-1.0483391323700546,-0.08613514566421508
1789061760056124000,2.1291240234375,0.6979641444712877,-1.0278390729159117,-0.16038542694114147
1789061760066083800,2.139083740234375,0.543628738284111,-1.002033162138611,-0.2775997476104647
1789061760076044800,2.149044921875,0.39658758075833317,-0.9403872916951775,-0.308364997828193
1789061760086005000,2.1590048828125,0.26146657812893387,-0.8809294328153133,-0.2986714694727212
1789061760095966000,2.168966064453125,0.04066694143116474,-0.8163705244693905,-0.31155984834674744
1789061760105926000,2.17892578125,-0.2321300090074539,-0.790261392961815,-0.29036329452842474
1789061760115886800,2.188886962890625,-0.5037579156666994,-0.7034792546309531,-0.2210591278841719
1789061760125846800,2.1988466796875,-0.7128507479578257,-0.5910697769600898,-0.18015322659797967
1789061760135808000,2.20880810546875,-0.9812725520521401,-0.5371244709566235,-0.16345787492273375
1789061760145768000,2.218767822265625,-1.2991133438318967,-0.4861739628549665,-0.13721084191496483
1789061760155729000,2.22872900390625,-1.496568345299363,-0.47484081406630574,-0.029407186672277746
1789061760165689900,2.23868994140625,-1.5377636945188045,-0.43503699227049947,0.17788186586620286
1789061760175649800,2.24864990234375,-1.4276894548624752,-0.42064080264940856,0.3123365683402866
1789061760185611000,2.258611083984375,-1.242040042001009,-0.5428185909450054,0.40441242916509507
1789061760195571000,2.268571044921875,-0.9596838205784559,-0.8346439208500087,0.17317754236645996
1789061760205532000,2.278531982421875,-0.45963118917047974,-1.3236902973361313,-0.26555890721017494
1789061760215492000,2.2884921875,-0.5060854818314313,-1.3626429821953177,-0.38544783564992247
1789061760225452800,2.298452880859375,-1.2523042463839054,-0.5485055505402386,0.04930726180612109
1789061760235412700,2.308412841796875,-2.4170184721201657,0.32693829047083856,0.24811109319981187
1789061760245374000,2.3183740234375,-3.935802156358957,0.8295426521882414,0.16728870352357625
1789061760255334000,2.328333984375,-3.8983839875906705,1.1565266084317116,0.35037871422581374
1789061760265294800,2.338294921875,-3.6846097194850445,1.4253060668572783,0.8283730238869785
1789061760275255000,2.348255126953125,-3.612748013845086,1.4508020349025725,1.0009981200024485
1789061760285215700,2.3582158203125,-2.878448235145211,1.2644953271761536,1.127500274303183
1789061760295175700,2.36817578125,-1.8491046028852463,0.9729833010040223,1.091320707419142
1789061760305137000,2.378136962890625,-0.8695949688524007,0.8680554843254387,0.8054897225581109
1789061760315097900,2.388097900390625,-0.062802200871706,0.1527252675767988,0.3880002235464752
1789061760325058000,2.39805810546875,0.2684258957475424,-0.008008169084414839,-0.12793317348454147
1789061760335018800,2.408018798828125,0.49592473782300944,0.2382239419683814,-0.32047764308936894
1789061760344978700,2.417978759765625,0.7679132944881916,0.07535181277804076,-0.5145001858901233
1789061760354940000,2.42793994140625,0.9501835863053798,-0.12397680054157971,-0.6507919858645648
1789061760364899800,2.43789990234375,1.1886731934726238,-0.20506503807976842,-0.6358855816990137
1789061760374861000,2.447861083984375,1.4458400285810231,-0.18227621010132133,-0.3880956832775846
1789061760384821000,2.457821044921875,1.5080156219869851,-0.23293233836628496,-0.02405557824494317
1789061760394782000,2.467781982421875,1.3753309065937995,-0.3256939894981682,0.1463754966912791
1789061760404742000,2.477741943359375,1.0682108307927847,-0.2587163295727223,0.21779691121783107
1789061760414702800,2.487702880859375,0.7783879267513751,-0.13479308584928512,0.3221761541029438
1789061760424662800,2.497662841796875,0.708752664989233,0.013531608681008219,0.4354369879061356
1789061760434624000,2.5076240234375,0.7307306880414486,0.11377192513048648,0.5494017687276005
1789061760444585000,2.5175849609375,0.7777548895448446,0.18107947459742427,0.5993681976953521
1789061760454545000,2.527544921875,0.8260212000638246,0.3195473034366965,0.5913617821766063
1789061760464505900,2.537505859375,0.834043762999773,0.5057937323432415,0.4177272532902658
1789061760474465800,2.5474658203125,0.7372212191045284,0.6612482787534594,0.16566424412690103
1789061760484427000,2.557427001953125,0.6614017157495021,0.7730105445619672,-0.08727710050726309
1789061760494387000,2.567386962890625,0.6386275738835334,0.8925271508242935,-0.3684074151303619
1789061760504348000,2.577347900390625,0.6655939067423343,0.8905454754877835,-0.531977719185315
1789061760514308000,2.58730810546875,0.6840028391361236,0.766963519482687,-0.5722708223354072
1789061760524268800,2.597268798828125,0.7197013445049524,0.6521740878727287,-0.5918588815111666
1789061760534228700,2.607228759765625,0.763318952435255,0.5814010542523116,-0.5447044777568429
1789061760544190000,2.61718994140625,0.7972428493469953,0.46478813354223963,-0.43918936270959674
1789061760554150000,2.62714990234375,0.8361527179777621,0.3113846013776958,-0.32545115718562156
1789061760564111000,2.637111083984375,0.8523223470121621,0.2313123359490186,-0.16071948120109736
1789061760574071000,2.647071044921875,0.9197907861292361,0.15169628985524178,-0.028745124300662426
1789061760584032000,2.657031982421875,0.9215145411819219,0.05590031252875924,-0.003333838864136487
1789061760593993000,2.666992919921875,0.9170487939447164,-0.06620265696495771,0.05428807329284027
1789061760603953200,2.676953125,0.9445242453694344,-0.20874270367920397,0.10158031461527571
1789061760613914000,2.6869140625,0.9660346509099006,-0.3021900720529258,0.1948193374679424
1789061760623874000,2.6968740234375,0.910667568475008,-0.3605490297801792,0.23189203553311524
1789061760633835000,2.7068349609375,0.9002993191957473,-0.4102689001083374,0.20377320817094294
1789061760643795000,2.716794921875,0.9407862278848886,-0.42497152533009647,0.2201991135213524
1789061760653756000,2.726755859375,0.9358791666209697,-0.4717696629926562,0.18491428525364026
1789061760663716000,2.736716064453125,0.9311422012269497,-0.5080252177223563,0.07978862618170678
1789061760673677000,2.746677001953125,0.9921545960724353,-0.5549262312375008,0.09684731301032007
1789061760683637000,2.756636962890625,0.9184376179546118,-0.5442173518270254,0.1845473881700076
1789061760693598000,2.766597900390625,0.664938073182106,-0.5471434684067964,0.1774335558431223
1789061760703558000,2.776557861328125,0.41949324004948135,-0.5770202818848192,0.12513026315933093
1789061760713519000,2.78651904296875,0.17413140902519225,-0.5390789660252631,0.13168969474015757
1789061760723480000,2.79647998046875,0.010883213064074516,-0.5148747913561761,0.10070524881379678
1789061760733440000,2.80643994140625,-0.177929047742486,-0.4325451754547655,0.11852347617228515
1789061760743401000,2.81640087890625,-0.4527887759298086,-0.4201031886413693,0.1269809142610058
1789061760753361000,2.82636083984375,-0.573161122238636,-0.4241021951496601,0.15750722289001567
1789061760763322000,2.836322021484375,-0.6477063678741455,-0.3790013629242778,0.2618290182331577
1789061760773282000,2.846281982421875,-0.6302659882515669,-0.4042714132592082,0.37314730313383043
1789061760783243000,2.856242919921875,-0.5249082557231187,-0.4823515550225973,0.48091553087010974
1789061760793203200,2.866203125,-0.36996143963932987,-0.5583833859540521,0.4853249813428148
1789061760803164000,2.876163818359375,-0.029801848545670508,-0.7922488404519855,0.2510642073843628
1789061760813123800,2.886123779296875,0.38778760370910165,-1.2320673679105936,-0.38927334875483066
1789061760823085000,2.8960849609375,0.7008867539197207,-1.7616490222722292,-1.2613590749770403
1789061760833045000,2.906044921875,0.5072194542974233,-1.9212397186391055,-1.8428950807206332
1789061760843006200,2.916006103515625,-0.19015256949961185,-1.1561875126704573,-1.2042844579719005
1789061760852967000,2.925966796875,-1.7815987543672323,0.2232991984285414,-0.03570643294695765
1789061760862926800,2.9359267578125,-3.7720465953975912,0.8576322899885475,-0.07930022161025553
1789061760872888000,2.94588818359375,-4.940218852633238,0.9609913960456847,-0.34265718006305396
1789061760882848000,2.955847900390625,-4.989657714062929,1.3471882234320043,0.014574265584757084
1789061760892809000,2.96580908203125,-4.60703026959598,1.5267909034751355,0.379521660471335
1789061760902769200,2.97576904296875,-3.689657066002488,1.4033344735458493,0.7444163182403892
1789061760912729900,2.985729736328125,-1.9214999770104884,1.1937453821703792,1.1746299089424312
1789061760922689800,2.995689697265625,-0.5134913741737603,1.2118449563540517,1.1753779508307576
1789061760932651000,3.005651123046875,-0.19472645328640936,1.1663446034170686,0.5763247008360922
1789061760942611000,3.01561083984375,0.1916933692008257,0.8414024551995098,-0.03639240591712296
1789061760952572200,3.025572265625,0.7799129443615674,0.8400507483296096,-0.24484315917873753
1789061760962532000,3.035531982421875,1.0645289274096488,0.8414889644391834,-0.3196660344455391
1789061760972493000,3.0454931640625,1.2219044319450854,0.649266456797719,-0.4106546114902943
1789061760982454000,3.0554541015625,1.193629939097166,0.5406937077455223,-0.47625323814749715
1789061760992414000,3.0654140625,1.2593150019288062,0.41997196347713467,-0.48785862800627944
1789061761002375200,3.075375244140625,1.3969856890410184,0.32935265813618897,-0.42811464566141366
1789061761012335000,3.085335205078125,1.5517068796753883,0.30689722683057186,-0.34545820895843204
1789061761022296000,3.095296142578125,1.6806582537591457,0.25747531653568145,-0.23801280170204117
1789061761032256000,3.105256103515625,1.6931787126362323,0.15255436798930166,-0.2087030657885596
1789061761042217000,3.115217041015625,1.6996932090967893,0.13954013424590228,-0.19813112889705226
1789061761052177000,3.125177001953125,1.7631325388282537,0.14828969628214836,-0.1538979280853644
1789061761062138000,3.13513818359375,1.7378297552675008,0.15443974334448576,-0.09884193915994838
1789061761072098000,3.14509814453125,1.5752970140993594,0.1361478614591062,-0.07932650682898237
1789061761082059000,3.15505908203125,1.3749182341396808,0.11881079608052968,-0.06698842334805521
1789061761092020000,3.16502001953125,1.1892623915374279,0.1673505167134106,-0.037077202993643005
1789061761101980000,3.17497998046875,0.9105278677433729,0.23793416524156927,-0.05018358341634739
1789061761111941000,3.184941162109375,0.6333265448659658,0.2231727955698967,-0.10688987399917095
1789061761121901000,3.194901123046875,0.5132984819501638,0.21436463521420954,-0.09634681614227593
1789061761131862000,3.204862060546875,0.5094038125991821,0.23499270496219396,-0.055783143289340656
1789061761141822200,3.214822265625,0.5403337883919477,0.19127572831064463,-0.029819859126396474
1789061761151783000,3.224782958984375,0.6822983733057976,0.01260214581117034,0.014589346706168725
1789061761161742800,3.234742919921875,0.8824334076374769,-0.19272008190006015,0.04916946990378201
1789061761171704000,3.2447041015625,1.1307383063763379,-0.35450843444168567,0.0504777394907549
1789061761181664000,3.2546640625,1.3201841889113186,-0.5057708629243075,0.011094545126659795
1789061761191625200,3.264625244140625,1.4270312832146883,-0.6064445292897522,-0.0857620015028864
1789061761201585200,3.274585205078125,1.40475983017385,-0.6722634476341307,-0.2697029847449623
1789061761211545900,3.2845458984375,1.355437873122096,-0.7110878299385309,-0.413911238666065
1789061761221507000,3.294507080078125,1.3591466645121573,-0.7353549868412316,-0.46627475537080315
1789061761231467000,3.304467041015625,1.3443775499254464,-0.7363688400588929,-0.5209032213328406
1789061761241428200,3.31442822265625,1.2868711173743008,-0.7302861591443419,-0.5700536577425896
1789061761251388200,3.32438818359375,1.1983493688344955,-0.7762105827122926,-0.6063203549208119
1789061761261348900,3.334348876953125,1.1530933460474013,-0.8209181778363883,-0.5906897646665573
1789061761271309000,3.34430908203125,1.1478414168685673,-0.8439441025063396,-0.5151865607190876
1789061761281270000,3.35427001953125,1.1194850909560918,-0.9355449662305414,-0.457500899143517
1789061761291230000,3.36422998046875,0.9984557420432567,-0.9505174944348632,-0.31565245142262427
1789061761301191200,3.374191162109375,0.8928998565942049,-0.9186611975774168,-0.22726583703719078
1789061761311151000,3.384151123046875,0.7852075436383485,-0.9612097149714827,-0.143765944380546
1789061761321111800,3.39411181640625,0.6599152765840292,-1.0147948824256658,-0.02394429075703956
1789061761331073000,3.404072998046875,0.454453494271636,-1.0035593487925827,0.02985290287947282
1789061761341033000,3.414032958984375,0.2504951022595167,-1.006333051289618,-0.011486110860668123
1789061761350994200,3.423994140625,0.10687865848541259,-1.0451659091614187,-0.07851239570081234
1789061761360954000,3.4339541015625,-0.06351590209901332,-1.0095866462580858,-0.06840528157576918
1789061761370914800,3.443914794921875,-0.3071276745855808,-0.9285385945998131,-0.11639087545722722
1789061761380875000,3.453875,-0.680462390050292,-0.8155949369870126,-0.10353734870087354
1789061761390836000,3.4638359375,-1.2075450672030448,-0.7274667178094386,-0.09521806784067302
1789061761400796000,3.4737958984375,-1.5977286261379717,-0.6543573501959443,-0.045502983285486694
1789061761410757000,3.483757080078125,-1.9191899465024471,-0.5864867600187659,-0.009609832127392292
1789061761420717000,3.493717041015625,-2.083973096945882,-0.576120848827064,0.11515976275969296
1789061761430678000,3.503677978515625,-2.065402836510539,-0.5887079431995749,0.2955331714469939
1789061761440638000,3.513637939453125,-2.063874896290898,-0.5894485324338078,0.4753861729893833
1789061761450599000,3.523598876953125,-1.988279264819622,-0.5459792469330131,0.6270631005570292
1789061761460560100,3.53356005859375,-1.6581465622216462,-0.5568346952073275,0.541433201001212
1789061761470520000,3.54352001953125,-1.1081500424712896,-0.968047305906564,0.11486118167191743
1789061761480481000,3.55348095703125,-0.6082751057177782,-1.325819856710732,-0.26632833894640207
1789061761490441000,3.56344091796875,-0.724944505855441,-1.1640057852059602,-0.41267742255479095
1789061761500402000,3.57340185546875,-1.538568581160903,-0.5806152376368642,-0.4143444059189409
1789061761510361900,3.58336181640625,-2.9711592520684,0.1108800030812621,-0.38841260373964903
1789061761520323000,3.593322998046875,-4.329350807812809,0.5731728126764297,-0.3651758127979934
1789061761530283000,3.603282958984375,-4.377755650019646,0.983898808902502,0.29757476027719676
1789061761540244200,3.613244140625,-4.268937547904253,1.432545516591519,1.0866768271360545
1789061761550204200,3.6232041015625,-3.835203601056337,1.5395568615458906,1.6551561482340096
1789061761560164900,3.633164794921875,-2.9470500622063875,1.5197531137928366,1.9638861434496937
1789061761570126000,3.6431259765625,-1.5012240621507167,1.4626707518726587,1.861949909802526
1789061761580085500,3.65308544921875,-0.4298702571570873,1.4178731403775513,1.272812489144504
1789061761590046500,3.66304638671875,-0.12025193479955196,1.129430730909109,0.43036622398048635
1789061761600006700,3.673006591796875,0.6060813950657844,0.9103890437945723,-0.19421959974281489
1789061761609967400,3.68296728515625,1.0321364778488873,0.8216649045504629,-0.644932226985693
1789061761619927300,3.69292724609375,1.4380004209965467,0.7289762455895543,-0.9423775887295603
1789061761629888500,3.702888427734375,1.69862879473567,0.6261736043713987,-1.0491927535247056
1789061761639848400,3.712848388671875,1.6840198391467331,0.5316325955420732,-1.0061297838024794
1789061761649809700,3.7228095703125,1.5926380250006913,0.3047003013081848,-0.6872178556598723
1789061761659769600,3.73276953125,1.724537142974138,0.1791341857485473,-0.30348296140767633
1789061761669730300,3.742730224609375,1.433691325625777,0.18789514596164225,0.08098718831650913
1789061761679691500,3.75269140625,1.2460527847737073,0.009757423904538154,0.42376404923647637
1789061761689651500,3.7626513671875,1.019649336719513,-0.0024156828396022316,0.6674241909094154
1789061761699612700,3.77261279296875,0.8919324728667736,0.08438874038830399,0.9497535243250429
1789061761709572600,3.782572509765625,0.7994768920093774,0.1016433881804347,1.1351876870006323
1789061761719533600,3.792533447265625,0.637833793157339,0.09127104724794625,1.1210570895131677
1789061761729493500,3.802493408203125,0.5244090740293265,0.11518559132069349,0.9143528328590095
1789061761739454500,3.812454345703125,0.6295727452903985,0.23947949498742818,0.5823414038423449
1789061761749414400,3.822414306640625,0.8162006477952003,0.41577027400359506,0.29775735030248757
1789061761759375600,3.832375732421875,0.9441980821549892,0.41965383743867274,0.07349705175682902
1789061761769335600,3.84233544921875,1.2029594929784535,0.38759266565889117,-0.06331438817754388
1789061761779296500,3.852296630859375,1.3625316307753323,0.3909428528696298,-0.12612378597501664
1789061761789257500,3.862257568359375,1.3899351860076188,0.3275076147913933,-0.22607607926335185
1789061761799217400,3.872217529296875,1.2683750912189482,0.2882508324190974,-0.32092082027960567
1789061761809178600,3.8821787109375,1.2171522689819336,0.2360474747121334,-0.3436762209124863
1789061761819138600,3.892138671875,1.223768472251296,0.13956833742707966,-0.2642800646470859
1789061761829099500,3.902099609375,1.1875526650100945,0.07023337378576397,-0.14554058023709804
1789061761839059700,3.912059814453125,1.1236369499385357,0.038813568649441,0.10058430758155881
1789061761849020400,3.9220205078125,1.1133137088447809,-0.06613529081717133,0.3514391465315595
1789061761858980400,3.93198046875,1.0469961933284997,-0.08942045094519853,0.4407370670756325
1789061761868941600,3.941941650390625,0.8702204072743653,-0.1142621928654611,0.4157664015460759
1789061761878901500,3.951901611328125,0.7558996160894632,-0.14493380998298525,0.4193072524907067
1789061761888862700,3.96186279296875,0.7572358331292868,-0.15282602453753352,0.42103506266400215
1789061761898823400,3.971823486328125,0.7849310647845268,-0.1674004933349788,0.42153453661873935
1789061761908783400,3.981783447265625,0.8016898918837309,-0.2362209315828979,0.43477560138795524
1789061761918744600,3.99174462890625,0.8447744158506393,-0.31919498286768794,0.4776746492527425
1789061761928704500,4.00170458984375,0.8946768031388521,-0.37825785108059645,0.5165125120932236
1789061761938665700,4.011665771484375,0.8592097684383392,-0.44970454617887734,0.4180912642970681
1789061761948625700,4.021625732421875,0.8319844923824071,-0.5630680366389453,0.25943719119317826
1789061761958586400,4.03158642578125,0.8172434348464012,-0.6645002662867308,0.1665491737352684
1789061761968546600,4.041546630859375,0.7970674927800894,-0.7499906843066215,0.14335711698448284
1789061761978507500,4.051507568359375,0.731153297367692,-0.7673261422500014,0.14480785464891233
1789061761988467500,4.061467529296875,0.6415887617766857,-0.821234842570126,0.2104369221101515
1789061761998428700,4.0714287109375,0.559585601350665,-0.821974408891052,0.37814332132283596
1789061762008389400,4.081389404296875,0.41257600800693034,-0.7603696011103689,0.6028154155397787
1789061762018349300,4.091349365234375,0.21250760917067527,-0.6608379443868995,0.7918870214022695
1789061762028310500,4.101310546875,-0.03770224640667438,-0.6193422970466316,0.9267832753650843
1789061762038270500,4.1112705078125,-0.35002047537267206,-0.6031688686199486,1.0114397267788648
1789061762048231700,4.121231689453125,-0.6462918249011039,-0.6063659110955893,1.030201125872135
1789061762058191600,4.131191650390625,-0.8031412597358226,-0.5979914659820497,0.9951929408550262
1789061762068152300,4.14115234375,-0.7647931166410445,-0.5208870373830199,1.0459903772868215
1789061762078112500,4.151112548828125,-0.5577314979165792,-0.43003830720037217,1.0950922618471086
1789061762088073500,4.161073486328125,-0.10748305411934853,-0.4171069294348359,1.0769936375115066
1789061762098034700,4.17103466796875,0.5140256271809339,-0.6281700388856232,0.6799873929496855
1789061762107994600,4.18099462890625,1.0329425335347653,-0.9640906772352754,-0.004227737230248749
1789061762117955300,4.190955322265625,0.9618272623479366,-1.1308538955800234,-0.6761496414177119
1789061762127915500,4.20091552734375,0.02358253563940525,-0.8470143037319183,-0.9098987760595977
1789061762137876500,4.21087646484375,-1.3696610442638397,-0.05281739795207977,-0.3005502689566463
1789061762147836400,4.22083642578125,-3.655499944856763,1.043737776054442,-0.12773352272659538
1789061762157797600,4.230797607421875,-5.856437625494599,2.01358599390313,-0.2063739287212491
1789061762167757600,4.240757568359375,-6.324519247624278,2.337558420305699,-0.5953534090960398
1789061762177718500,4.250718505859375,-5.992903612992167,2.2564178680583833,-0.5416362127600237
1789061762187678500,4.260678466796875,-4.907172907599806,1.9913186325155197,-0.15303610535794868
1789061762197639400,4.270639404296875,-2.9578432588994503,1.9872168962851167,0.46901020821668205
1789061762207600600,4.2806005859375,-0.5575812757909298,1.6718739126704631,0.7657572854980826
1789061762217560600,4.290560546875,0.2400689853131771,1.4188419854097067,0.35022140477225183
1789061762227521500,4.300521484375,0.3045306438297033,1.1397653701797128,-0.3704084527544677
1789061762237481500,4.3104814453125,1.2474299183458089,0.6799091400817037,-0.6625305736489594
1789061762247442400,4.3204423828125,2.03968270432055,0.48819209774434563,-0.7170755260460079
1789061762257402400,4.33040234375,2.252690079706907,0.3742417473070323,-0.7758513940110802
1789061762267363600,4.340363525390625,1.9010592465281486,0.10297215256616472,-0.8812395216777921
1789061762277323500,4.350323486328125,1.4236200134664774,-0.23202684089392422,-0.9506419245321303
1789061762287284700,4.36028466796875,1.238546939188242,-0.2934415329299867,-0.8507054133348166
1789061762297244700,4.37024462890625,1.1116022287517786,-0.19582688880898058,-0.706898853816092
1789061762307205400,4.380205322265625,1.1068933204084634,-0.15610972238332033,-0.5908222319398075
1789061762317166600,4.39016650390625,1.1654548149704933,-0.12788725198358297,-0.5026939031643792
1789061762327126500,4.40012646484375,1.21984457680583,-0.12995645947307347,-0.4214160613382235
1789061762337087700,4.410087646484375,1.2670131552159785,-0.2277498942270875,-0.29949995618611575
1789061762347047700,4.420047607421875,1.3985481160521507,-0.386869319820404,-0.20408156173406167
1789061762357008400,4.43000830078125,1.472120132741332,-0.4575367011092603,-0.1026931164290756
1789061762366968600,4.439968505859375,1.395632520866394,-0.5459687255389988,-0.03512273304117843
1789061762376929500,4.449929443359375,1.2187053436428308,-0.6247279356077313,-0.03090299645429477
1789061762386889500,4.459889404296875,1.0206126287937163,-0.6233028712406754,-0.03819393891375512
1789061762396850700,4.4698505859375,0.7580828053474425,-0.5274855588652193,-0.0590716360412538
1789061762406811400,4.479811279296875,0.476425087583065,-0.38746962380111216,-0.08831468166038393
1789061762416771300,4.489771240234375,0.21737609198987481,-0.27240751272961494,-0.16581605542143807
1789061762426732500,4.499732666015625,0.052501756131649015,-0.18611498454660177,-0.19856570265572518
1789061762436692500,4.5096923828125,0.011120528951287269,-0.1237269174337387,-0.21823318374324588
1789061762446653700,4.51965380859375,-0.02442074002921581,-0.1694547955162823,-0.20057563597233966
1789061762456613600,4.529613525390625,-0.024576222851872442,-0.18256518311053513,-0.05590788391386158
1789061762466574300,4.53957421875,0.058575523087382314,-0.20609291982278227,0.11958336962191388
1789061762476534500,4.549534423828125,0.15170038150846957,-0.2494501232512295,0.17554934953171758
1789061762486495500,4.55949560546875,0.22179157034456728,-0.23380451809093356,0.16626336079752072
1789061762496455400,4.569455322265625,0.3359083633899689,-0.1291302377820015,0.1135603830053471
1789061762506416600,4.579416748046875,0.45611821261346336,-0.09307473566904663,-0.009096530576702207
1789061762516377300,4.58937744140625,0.5836749174684286,-0.07569061627835035,-0.11144172861725091
1789061762526337500,4.599337646484375,0.7665116109967232,-0.07236497898697852,-0.15475162230525166
1789061762536298500,4.609298583984375,0.9622411038458347,-0.1149986904464662,-0.20854299812233074
1789061762546258400,4.619258544921875,1.0244254650801419,-0.16407193343415855,-0.24410209502046926
1789061762556219600,4.6292197265625,1.070932949233055,-0.245617559351027,-0.20864286003392188
1789061762566179600,4.6391796875,1.1656669964164494,-0.3532105035856366,-0.2110703246428631
1789061762576140300,4.649140380859375,1.2445213374227284,-0.44308819677904243,-0.1923450015099719
1789061762586100700,4.659100830078125,1.3395710264265537,-0.5031105576738715,-0.08433912909291684
1789061762596062000,4.66906201171875,1.4245786293655633,-0.6084130528837443,0.031116497641080057
1789061762606023000,4.67902294921875,1.3347995742410421,-0.7391147777661681,0.05756270648275967
1789061762615983000,4.688983154296875,1.225970950731635,-0.8768260891497135,0.05378661744357086
1789061762625943800,4.69894384765625,1.133600710070133,-0.9356319138616322,0.042882142395759
1789061762635903700,4.70890380859375,1.076042839592695,-0.9821106103114783,0.09206014266586862
1789061762645865000,4.718864990234375,1.0086088872671126,-1.0098257157109678,0.15160316821169106
1789061762655825000,4.728824951171875,0.8673895677626132,-1.0351631321936845,0.1434121716399677
1789061762665785900,4.738785888671875,0.7409954769462347,-1.048830715279281,0.0882378352981992
1789061762675746000,4.74874609375,0.6615840865790844,-1.005875224519521,0.06761809498714283
1789061762685706800,4.758706787109375,0.47735506190955634,-0.9631810150444508,0.013144271597545594
1789061762695668000,4.76866796875,0.16823942837715147,-0.9717696874305606,-0.09154584560133516
1789061762705628000,4.7786279296875,-0.10879647480547427,-0.9232304051890968,-0.20730669779302552
1789061762715588900,4.7885888671875,-0.3214455382734537,-0.8327782731086015,-0.2856387502245605
1789061762725549000,4.798549072265625,-0.4728174184799194,-0.7840722559981048,-0.26494996326528486
1789061762735509800,4.808509765625,-0.630308658349514,-0.739014240001142,-0.1587207816645503
1789061762745469700,4.8184697265625,-0.8777227457284927,-0.718016898549348,-0.10761431581620126
1789061762755431000,4.828430908203125,-1.1409592561393975,-0.6780689190424979,-0.11374854425489901
1789061762765390800,4.838390869140625,-1.2733230690151451,-0.575721912637353,-0.06104848907217383
1789061762775352000,4.84835205078125,-1.306222299054265,-0.4942142806433141,-0.013378829272091388
1789061762785312800,4.858312744140625,-0.9417980352759361,-0.7379356509841978,-0.2677504076387733
1789061762795272700,4.868272705078125,-0.28146424101889134,-1.5418978717140852,-0.8861023784738034
1789061762805234000,4.87823388671875,-0.47326340868175026,-1.9364936941333113,-1.2837610225297509
1789061762815193900,4.88819384765625,-1.5561732114344835,-1.251490007391572,-1.1063951616279781
1789061762825154800,4.89815478515625,-3.1250995214581487,-0.01695361901894212,-0.8894664480794221
1789061762835115000,4.908114990234375,-4.879005966779589,0.760761230776459,-1.1211895567864179
1789061762845076000,4.918075927734375,-5.6510512465059755,1.1925307456836103,-0.8620427999071776
1789061762855036000,4.928035888671875,-5.4798646587610245,1.8916088427461684,0.2587920251574367
1789061762864996900,4.937996826171875,-5.613284118169545,2.256532872740179,1.0185482436098159
1789061762874956800,4.947956787109375,-5.11759552718997,2.284989151895791,1.4418448214650152
1789061762884918000,4.95791796875,-3.9994636044085023,2.166528192166239,1.4935095422506333
1789061762894879000,4.96787890625,-2.525363696026802,2.023899151994288,1.000088823137805
1789061762904839000,4.9778388671875,-0.9580822306007146,1.6974692494370043,0.2865495083939284
1789061762914799900,4.9877998046875,-0.5214397028297185,1.4763251832157374,-0.5945780773419886
1789061762924759800,4.997759765625,0.0455441920787096,1.2583211685858666,-1.342429338467121
1789061762934721000,5.007720947265625,0.6151473295748233,0.892548851199448,-1.7641963686674833
1789061762944681000,5.017680908203125,1.3598621193051337,0.4752767943307757,-1.9319545893989503
1789061762954642000,5.027641845703125,1.9371447053879498,0.3109573158763349,-1.6859908469587563
1789061762964602000,5.03760205078125,2.0917355476409196,0.06707695558145642,-1.329977707042545
1789061762974562800,5.047562744140625,2.2344787157118318,-0.13360577576085925,-1.064065986073017
1789061762984524000,5.05752392578125,1.9960364548176526,-0.07318710902482271,-0.7141372075717896
1789061762994484000,5.06748388671875,1.81791451485157,-0.04922609546184539,-0.3556780627429485
1789061763004445000,5.07744482421875,1.7122686130315063,0.02620776957646012,-0.03948474590927362
1789061763014405000,5.087405029296875,1.3253975396454334,0.08046703689992428,0.005503711982816457
1789061763024365800,5.09736572265625,1.0808423488289116,-0.022458938436955213,-0.14310644842535256
1789061763034325800,5.10732568359375,1.0017986227303743,-0.11050342485383152,-0.40557818500883874
1789061763044287000,5.117286865234375,1.0646399865686893,-0.017488018156588077,-0.7148191984865814
1789061763054247000,5.127246826171875,1.2925982628494501,0.1563045143030584,-1.0734759117141366
1789061763064208000,5.137207763671875,1.247979953444004,0.2625038122221827,-1.4683523046404123
1789061763074168800,5.1471689453125,1.2732868286579846,0.307606690274179,-1.7575269739061592
1789061763084128800,5.157128662109375,1.3477514102727175,0.5506017921671271,-1.9295571728684007
1789061763094090000,5.167090087890625,1.2179729377150534,0.8003846545040607,-2.0036273483380675
1789061763104050000,5.1770498046875,1.080191191443801,0.8915276914581656,-2.0739020770475265
1789061763114011000,5.187010986328125,0.8763228158026933,0.9845381297193467,-1.9603649835862218
1789061763123971000,5.19697119140625,0.715474082198739,1.0414252613283692,-1.8254798355393111
1789061763133931800,5.206931884765625,0.562508210799098,1.0541583400428294,-1.7501817257098853
1789061763143891700,5.2168916015625,0.501153286126256,1.0239802055306733,-1.6965050805799662
1789061763153853000,5.22685302734375,0.5111760829687119,0.9416637413717805,-1.6241197894573212
1789061763163814000,5.23681396484375,0.45987551932036874,0.8416542380034923,-1.631645216526091
1789061763173774000,5.246774169921875,0.46916591023504733,0.8044662247292697,-1.503890651011467
1789061763183734800,5.25673486328125,0.4842231941133737,0.7812985535010695,-1.3494096988737583
1789061763193694700,5.26669482421875,0.3957511299341917,0.6929939548432826,-1.3094529515385627
1789061763203656000,5.276656005859375,0.3739163147449493,0.5650169787496327,-1.3658181051000953
1789061763213615900,5.286615966796875,0.270675720500946,0.4238417906478047,-1.3937471455112098
1789061763223576800,5.296576904296875,0.15862112068235873,0.2928641714334488,-1.3828452277466654
1789061763233537000,5.306537109375,0.1513034911453724,0.2096690247438848,-1.2893389687925576
1789061763243497700,5.316497802734375,0.07483107683956623,0.1871446198552847,-1.1276450165361165
1789061763253459000,5.326458984375,-0.0924082345843315,0.14953136690631508,-1.117506557424739
1789061763263419000,5.3364189453125,-0.28411972396373747,0.12260580444931983,-1.1161593075342475
1789061763273379800,5.3463798828125,-0.34666648876965045,0.1575515917547047,-1.0348056239929049
1789061763283340000,5.356340087890625,-0.38423195705413815,0.167885061981529,-0.9356187621191143
1789061763293301000,5.366301025390625,-0.36200200506746766,0.1020605906791985,-0.9661863343402742
1789061763303261000,5.376260986328125,-0.31523850032687184,0.058077364306896924,-1.0330933401823044
1789061763313222000,5.386221923828125,-0.1270773969054222,0.07677329694852232,-1.0057225181758402
1789061763323181800,5.396181884765625,0.04274608579277992,0.06771203861460089,-0.9655763857483863
1789061763333143000,5.40614306640625,0.15892448754310606,0.05820698203593492,-0.940052652913332
1789061763343104000,5.41610400390625,0.14038637581169605,0.1028362512268126,-0.8918464750837534
1789061763353064000,5.42606396484375,0.0003723404437303543,0.12632906275615097,-0.9384970940344035
1789061763363025000,5.43602490234375,-0.05758534300625324,0.21181538912281392,-0.878166836234182
1789061763372984800,5.44598486328125,-0.06497954491078853,0.3374070775151253,-0.8156357073888182
1789061763382946000,5.455946044921875,-0.04159107053875923,0.453558298997581,-0.7470618643131106
1789061763392906000,5.465906005859375,-0.05572773244082927,0.5989338613986969,-0.6730927380651235
1789061763402867000,5.475866943359375,-0.06814706903100014,0.7579742304064333,-0.657056672282517
1789061763412827100,5.4858271484375,-0.19515081617832183,0.9909458048045635,-0.5608724628234282
1789061763422787800,5.495787841796875,-0.35736499291658397,1.2385755807608365,-0.41306517976336177
1789061763432748800,5.505748779296875,-0.47743397236466406,1.4223666524045169,-0.3304666472600773
1789061763442709000,5.515708984375,-0.6355576649188995,1.575375193902105,-0.26013401435092093
1789061763452670000,5.525669921875,-0.7263742463976144,1.660073438630998,-0.16738346913494168
1789061763462630000,5.5356298828125,-0.8066402077674866,1.619960916212201,-0.2709501169955358
1789061763472590800,5.5455908203125,-0.6548001255273819,1.3583411933481693,-0.6765341106906533
1789061763482550800,5.55555078125,-0.23661270737946033,0.5437703387118875,-1.5886508550606666
1789061763492512000,5.565511962890625,-0.2283563356876373,-0.17091449280530213,-2.4544699586361647
1789061763502472000,5.575471923828125,-1.7996435296237467,0.27390140454918144,-2.711628902699053
1789061763512433000,5.585432861328125,-3.4563118359863756,0.9660909111417829,-2.0629222717411815
1789061763522393900,5.595393798828125,-4.868441318145394,1.648840389215946,-0.8538547442112118
1789061763532353800,5.605353759765625,-5.576902891233563,2.501618078780174,-0.22907401897031812
1789061763542315000,5.61531494140625,-5.509808546125888,2.697229498207569,-0.18170637432411313
1789061763552275000,5.62527490234375,-4.454229817891121,2.2467738414004446,0.09375146588683128
1789061763562236000,5.63523583984375,-2.92110255100131,1.9807694737114012,0.47637781437523663
1789061763572196000,5.645196044921875,-1.4945599280864,1.8551000439077614,0.5734395007885992
1789061763582156800,5.65515673828125,-0.5972112753897905,1.7132237217992543,0.20020875715501604
1789061763592116700,5.66511669921875,-0.2454541854828596,1.4847991431809962,-0.485739882286638
1789061763602077700,5.67507763671875,-0.07836392714083194,1.2383138610847293,-0.9811138543590903
1789061763612039000,5.685038818359375,-0.1448760884463787,1.0530367886669934,-1.3731240441992878
1789061763621998800,5.694998779296875,-0.3106079179167747,0.9328511971019208,-1.6804320437878368
1789061763631959800,5.704959716796875,-0.4648346030324697,0.9221382260382175,-1.8338482893034815
1789061763641919700,5.714919677734375,-0.007310030752420425,0.9136806326858699,-1.634010192091763
1789061763651880700,5.724880615234375,0.554065376624465,0.8676683847039938,-1.4989643005251883
1789061763661841000,5.7348408203125,1.2141963417857884,0.8445850307583809,-1.3430838568530976
1789061763671801900,5.7448017578125,1.9531506682932376,0.7647219511009752,-1.1989585867740213
1789061763681761800,5.75476171875,2.6401497666358944,0.6383601551190018,-1.1477394908640532
1789061763691722800,5.76472265625,2.9695857191413637,0.536528550890088,-1.2512664277687668
1789061763701683700,5.77468359375,3.1736101621270176,0.19397636557146905,-1.4162921547964213
1789061763711643600,5.7846435546875,3.165123488810658,-0.14712635159119963,-1.5383968778558075
1789061763721604900,5.79460498046875,2.9020068053871393,-0.24482757801711558,-1.7290597349651158
1789061763731564800,5.804564697265625,2.5488316653758285,-0.45934769605398174,-1.9948262022450565
1789061763741526000,5.814526123046875,2.299261276745796,-0.6363524685584009,-2.0193384199500084
1789061763751486000,5.82448583984375,2.3217805670678615,-0.593272328505665,-1.7628145589202642
1789061763761446700,5.83444677734375,2.306725621277094,-0.5129154739819467,-1.351119279270619
1789061763771408000,5.844407958984375,2.1863193726986645,-0.5577313517861068,-1.069729272531718
1789061763781367800,5.854367919921875,2.1649925070315597,-0.5097049875028431,-0.7686492075473069
1789061763791329000,5.8643291015625,2.0968799247920513,-0.4359934162124991,-0.4532016675796359
1789061763801289000,5.8742890625,1.8286609497934578,-0.4272914927102625,-0.27370964483674615
1789061763811249700,5.884249755859375,1.3569108682841062,-0.33954482019618154,-0.1876497928984463
1789061763821209900,5.8942099609375,0.8764964188039303,-0.2709082140825689,-0.20562446206081658
1789061763831170800,5.9041708984375,0.4671826274633407,-0.3257710002571344,-0.21733614357197656
1789061763841130800,5.914130859375,0.10811609132587909,-0.40025793983414765,-0.3246787480410188
1789061763851092000,5.924092041015625,-0.07499065131545066,-0.4731374442145228,-0.4220838045319542
1789061763861052700,5.934052734375,-0.09863280818760395,-0.5052252117402851,-0.3814296860497445
1789061763871012900,5.944012939453125,-0.04222527678906917,-0.5786496366523206,-0.3815090348962694
1789061763880973800,5.953973876953125,0.0022808044135570523,-0.6746620332084595,-0.45253655473440885
1789061763890933800,5.963933837890625,0.07815934447944164,-0.6839635300390422,-0.4091024501448497
1789061763900895000,5.97389501953125,0.19862112263739107,-0.6301834245346486,-0.31995570157449693
1789061763910855000,5.98385498046875,0.32357378247380253,-0.6463916320137679,-0.2793688944411464
1789061763920815600,5.993815673828125,0.43602118100225923,-0.632874709445238,-0.251224749974627
1789061763930776800,6.00377685546875,0.47386195909678935,-0.5813147642083466,-0.2677226611153222
1789061763940736800,6.01373681640625,0.36432957123219967,-0.5882809499591589,-0.3316411343995482
1789061763950698000,6.023697998046875,0.3404378235131502,-0.6497169770441948,-0.36702392488270996
1789061763960658000,6.033657958984375,0.3945096054404974,-0.6870724558398127,-0.22844350251443682
1789061763970618600,6.04361865234375,0.41066228334009647,-0.7679593255870044,-0.08743202620749362
1789061763980578800,6.053578857421875,0.33497488193213937,-0.8910250026330351,0.0007871226565446704
1789061763990539800,6.063539794921875,0.29255963552892206,-1.0144871316507458,0.07697830886817537
1789061764000499700,6.073499755859375,0.34603520512878894,-1.054443732855469,0.1063563790438231
1789061764010461000,6.0834609375,0.4572340649008751,-1.0386426448725163,0.11507718077646567
1789061764020421600,6.093421630859375,0.5292074142217635,-1.0766130406960845,0.1081689814237412
1789061764030381800,6.1033818359375,0.6081184538513421,-1.2071024380020796,0.07740344807822257
1789061764040342800,6.1133427734375,0.7754869446128606,-1.2921701005652546,0.024761297095194458
1789061764050302700,6.123302734375,0.8693325185239315,-1.3355337337344884,-0.024881051017343996
1789061764060264000,6.133263916015625,0.8679249898135661,-1.4223665062740445,-0.03923018662631511
1789061764070224000,6.143223876953125,0.6634241614878177,-1.5347224271267652,-0.09142567155407741
1789061764080184600,6.1531845703125,0.32099487189650533,-1.6708208964861928,-0.23246095799487082
1789061764090144800,6.163144775390625,0.11494272247552871,-1.72769984478876,-0.29175772629519925
1789061764100105700,6.173105712890625,-0.08859598281979561,-1.6850857148125766,-0.3009038133683614
1789061764110067000,6.18306689453125,-0.21359365084171295,-1.6864486737288533,-0.2762680240826681
1789061764120027000,6.19302685546875,-0.2649170108437538,-1.6743141454294324,-0.2236387691138312
1789061764129987800,6.20298779296875,-0.2733177594423294,-1.6356803172610699,-0.08584178874082862
1789061764139947800,6.21294775390625,-0.31871172939538955,-1.6400748989582061,-0.03689030896928161
1789061764149908700,6.22290869140625,-0.5280646739274263,-1.6112230446137488,-0.04156743393484503
1789061764159868700,6.23286865234375,-0.7253355509996414,-1.5494453644841908,-0.08014091021809726
1789061764169830000,6.242829833984375,-0.9867273103266954,-1.505480404420942,-0.13117610092852264
1789061764179790800,6.252790771484375,-1.367204298761487,-1.421631323867291,-0.27160350287035107
1789061764189750800,6.262750732421875,-1.6217489686727522,-1.3239067165657876,-0.3545258605005219
1789061764199711700,6.272711669921875,-1.7578274181574582,-1.2110060213118792,-0.29276604482121765
1789061764209671700,6.282671630859375,-1.870724314019084,-1.1162810342177747,-0.2319510357113555
1789061764219633000,6.2926328125,-1.9368045136481522,-1.108749761930108,-0.1826744887039065
1789061764229592800,6.3025927734375,-1.8116899412482976,-1.156851821798086,-0.08779226522147655
1789061764239554000,6.312553955078125,-1.5819745921671389,-1.2921557797789573,-0.15122290018983184
1789061764249514000,6.322513916015625,-1.48103818321228,-1.3707881485976279,-0.24244711262136695
1789061764259474700,6.332474609375,-1.646496456438303,-1.0838068977229296,-0.2671643513791263
1789061764269436000,6.342435791015625,-1.897052348974347,-0.4496726897358894,0.08127418856434523
1789061764279395800,6.352395751953125,-2.273138408973813,0.335181656550616,0.31882600342482326
1789061764289356800,6.362356689453125,-2.6287960134506223,0.8130024362757802,0.3188025494839996
1789061764299317000,6.37231689453125,-2.5893343561559914,1.0417128460980951,0.4582187650892883
1789061764309277700,6.382277587890625,-2.195518578198552,1.1881266655057667,0.5013523888949305
1789061764319237600,6.392237548828125,-1.7881383852690458,1.2635074851825832,0.3182774296313524
1789061764329198800,6.40219873046875,-1.4164321477890014,1.2881689020998774,0.17658530498333275
1789061764339159800,6.412159912109375,-0.8776239615291357,1.1160429876781999,-0.021307941770926115
1789061764349120000,6.4221201171875,-0.5259609796464443,0.9877715586826205,-0.3622762188989669
1789061764359080700,6.432080810546875,0.06552315026819705,0.9534551553219556,-0.5258069215958938
1789061764369040600,6.44204052734375,0.6074392394155264,0.889287219054997,-0.7629452237520367
1789061764379001900,6.452001953125,0.8995908786654472,0.7689370845779776,-1.0147247397989034
1789061764388961800,6.4619619140625,1.1825029804050922,0.6583065262131392,-1.1556703569285571
1789061764398923000,6.471923095703125,1.4804612601071596,0.5691708835586905,-1.1593462689623235
1789061764408883000,6.481883056640625,1.725244414460659,0.5083423208475113,-1.0243874711573124
1789061764418843600,6.49184375,1.7414526219397781,0.45781376448497174,-0.8648729818318038
1789061764428804900,6.501804931640625,1.6035481260716915,0.2857023169800639,-0.7891562812641263
1789061764438764800,6.511764892578125,1.4573141932755709,0.17198475238531827,-0.5646975010043009
1789061764448725800,6.521725830078125,1.3979665167719124,0.11842647293806076,-0.24659268799349665
1789061764458686000,6.53168603515625,1.2663351098239422,0.01181041091158986,-0.04951579912342131
1789061764468646700,6.541646728515625,1.1271516800612211,-0.13574585652947424,0.13152991933487354
1789061764478606600,6.551606689453125,1.0017664740264416,-0.11281330923140048,0.3028347266320139
1789061764488567800,6.56156787109375,0.8526099317818879,-0.05501446960493922,0.40582850650809704
1789061764498528800,6.57152880859375,0.6152455292522907,-0.03198255358561873,0.34267522717639803
1789061764508489000,6.581489013671875,0.4054612075656652,0.024868922188133,0.2193458576928824
1789061764518449700,6.59144970703125,0.30799685863554477,0.09618044659942387,0.08580145673044025
1789061764528409600,6.60140966796875,0.2866828524500131,0.10239961337521672,-0.11106734234690666
1789061764538370800,6.611370849609375,0.364319634360075,0.11208777143582702,-0.25293862295411523
1789061764548330800,6.621330810546875,0.5479162063449621,0.139697370634228,-0.22053156034611165
1789061764558292000,6.6312919921875,0.7576911756813526,0.052073886108398436,-0.12937836732417343
1789061764568253000,6.6412529296875,0.8632932383596896,-0.12471329812258482,-0.14159275592677295
1789061764578212900,6.651212890625,1.0505535935491324,-0.2598594351932406,-0.03978807623740285
1789061764588174000,6.661174072265625,1.1911077271431685,-0.3350853565692901,0.05887282553352415
1789061764598134000,6.671134033203125,1.2420242599099873,-0.45287411612570283,0.08554722624104469
1789061764608095200,6.68109521484375,1.1162158600270748,-0.5729077319994569,0.0876448195748031
1789061764618055200,6.69105517578125,0.9816735340684651,-0.643879356931895,0.09538359713330864
1789061764628015900,6.701015869140625,0.9326222106516361,-0.6438928009353577,0.12190390325766057
1789061764637976000,6.71097607421875,0.8834224186748265,-0.6279460208714008,0.15094675012957304
1789061764647937000,6.72093701171875,0.7798854718327521,-0.5749385071747005,0.21286080652251838
1789061764657898000,6.73089794921875,0.6856593741714954,-0.5307072973906993,0.2467247534079477
1789061764667858200,6.740858154296875,0.6320879429817199,-0.5155722721010446,0.3632612844135612
1789061764677819100,6.750819091796875,0.5796650973051786,-0.5216175436146557,0.40410314402021463
1789061764687779000,6.760779052734375,0.4857534724205732,-0.5271323615133762,0.40995888431109484
1789061764697740000,6.770739990234375,0.4947860891819,-0.5952196631811559,0.3449981902312487
1789061764707700000,6.780699951171875,0.5907441252022981,-0.6414065370775759,0.27103783181160684
1789061764717661200,6.7906611328125,0.7065133616298437,-0.6571709463119506,0.23203845826648176
1789061764727622100,6.8006220703125,0.7698392941147089,-0.6937696153908968,0.16157277356218547
1789061764737582000,6.81058203125,0.8113491161108016,-0.7484466697350144,0.16892861621771008
1789061764747543000,6.82054296875,0.8317921846807003,-0.8063102451607584,0.23449103905037044
1789061764757503000,6.8305029296875,0.704744598391652,-0.8773260014958679,0.22430055749081074
1789061764767464200,6.840464111328125,0.5299585248500108,-0.9085277799673378,0.18487145075891165
1789061764777424100,6.850424072265625,0.3735241005569696,-0.928557591561228,0.1305736780559644
1789061764787385000,6.860385009765625,0.2533358786433935,-0.9065629096351563,0.10104801610317081
1789061764797346000,6.870345947265625,0.11529518917500972,-0.8451897186532616,0.09467939438670873
1789061764807306000,6.880305908203125,0.007150456276535987,-0.7972432877384126,0.1331423960328102
1789061764817267200,6.89026708984375,-0.17439619744122029,-0.7221930151902138,0.22033307863194493
1789061764827227100,6.90022705078125,-0.4468278216987848,-0.6845536048866808,0.25859186294283715
1789061764837188000,6.91018798828125,-0.7189689385771751,-0.6353584890849888,0.2706337445227429
1789061764847148300,6.920148193359375,-0.910132146424055,-0.5905107548378408,0.2604356641786173
1789061764857109000,6.93010888671875,-1.0565303298711777,-0.5914281619437038,0.24246293124500662
1789061764867069000,6.94006884765625,-0.8446727090418338,-0.8526312668308615,0.0663855757838115
1789061764877030100,6.950030029296875,-0.7854039429932832,-1.1738539561338721,-0.39085524765141305
1789061764886991000,6.9599912109375,-0.951609819716215,-1.2258689516618848,-0.7228857466947287
1789061764896951000,6.969950927734375,-1.9004530973285436,-0.7770499561458826,-0.6987011535089462
1789061764906912000,6.979912109375,-2.9975089143335816,0.10223492433279752,-0.3688537706583738
1789061764916872000,6.989871826171875,-3.7679151946812866,0.6155192316271364,-0.20632574219796807
1789061764926833200,6.999833251953125,-3.7760914868742224,0.748922032161802,0.07426613643318414
1789061764936793000,7.00979296875,-3.527130754575133,1.0512969592623411,0.33187012084983286
1789061764946754000,7.019754150390625,-2.7818454714804886,1.269387337001413,0.4754372455894947
1789061764956715000,7.029715087890625,-2.0223381862878798,1.2874261209085582,0.49793169373124835
1789061764966675000,7.039675048828125,-1.4252180963128804,1.265710548184812,0.41743272732309994
1789061764976636200,7.04963623046875,-1.0210592035174368,1.1906443474151194,0.14769231491088866
1789061764986596000,7.05959619140625,-0.7517197000563144,1.1166456297464669,-0.13268420393653213
1789061764996557000,7.06955712890625,-0.3518400920152664,1.073201624817401,-0.2807608419898897
1789061765006517200,7.079517333984375,0.01924596773982048,0.8677230375006795,-0.48610908092521127
1789061765016478000,7.08947802734375,0.4672141916453838,0.6173780112363397,-0.647163493169099
1789061765026438000,7.09943798828125,1.0507768809109925,0.46817558402344583,-0.7777230331018566
1789061765036399000,7.109399169921875,1.6327438254177569,0.3278945682823658,-0.9231493758421391
1789061765046360000,7.119360107421875,2.1082839468598364,0.23914441781416534,-0.9879550985559821
1789061765056320000,7.129320068359375,2.435878655412793,0.18937281729876995,-1.0223222091905773
1789061765066281000,7.139281005859375,2.664495103341341,0.14512714059799908,-1.0434892081208527
1789061765076241000,7.149240966796875,2.6891666032612322,0.15643281685784458,-1.0603425085704774
1789061765086202000,7.1592021484375,2.489454178255796,0.1342183547012508,-1.1608060393165796
1789061765096162000,7.169162109375,2.233054235866666,0.07044321714416146,-1.2362000838011502
1789061765106123000,7.179123046875,2.009670427894592,0.01930178958028555,-1.169094048255682
1789061765116084200,7.189084228515625,1.7191244702756403,-0.010243746116757392,-1.034737015736103
1789061765126044200,7.199044189453125,1.401042855477333,-0.07827347237840294,-0.8721868850417435
1789061765136005000,7.209005126953125,1.0651263087809084,-0.15178279909491538,-0.6026556584008038
1789061765145965000,7.218965087890625,0.5911065287739038,-0.08888122950196266,-0.3125954384721815
1789061765155926000,7.228926025390625,0.09562719663083553,0.06406140715256332,-0.04515709245726466
1789061765165886200,7.23888623046875,-0.3225958773523569,0.1534868265338242,0.1613538335818797
1789061765175847200,7.24884716796875,-0.5752718307822943,0.20775909946933388,0.3296341054260731
1789061765185808000,7.258807861328125,-0.7512520825445651,0.18717158092744648,0.4239351680196821
1789061765195768000,7.26876806640625,-0.7756710690081119,0.10437727012373506,0.41453590990304945
1789061765205729000,7.27872900390625,-0.6352952145904303,0.03322349355742335,0.40643706686049696
1789061765215689000,7.28868896484375,-0.31317864518761634,-0.025509338983520865,0.38486046421602366
1789061765225650200,7.298650146484375,-0.04872983637750149,-0.09619958969131112,0.25235548930391666
1789061765235610000,7.308610107421875,0.07906652245223522,-0.2072516614038497,0.037431905032694335
1789061765245571000,7.318571044921875,0.3625625615596771,-0.3146891228158027,-0.1254362786348909
1789061765255532000,7.328531982421875,0.6072492698013782,-0.3462079313471913,-0.21145503137782215
1789061765265492000,7.338491943359375,0.9055658614218235,-0.3881399973433465,-0.32699842316024
1789061765275453200,7.348453125,1.092488947480917,-0.48534606066346164,-0.4814954496499151
1789061765285413000,7.3584130859375,1.2838807033866644,-0.5883939088143408,-0.5654574159935116
1789061765295374000,7.3683740234375,1.5054454792380332,-0.6976379812568426,-0.6090580727890134
1789061765305334000,7.378333984375,1.6700117720603942,-0.8082415785495192,-0.6483879934627562
1789061765315295000,7.388294921875,1.7378613194495438,-0.8971287263356149,-0.6195849466960877
1789061765325256200,7.398256103515625,1.6878794371843338,-0.9346993091866374,-0.5947295415766537
1789061765335216000,7.408216064453125,1.6471850232243537,-0.9732224435221404,-0.5299169507306069
1789061765345177000,7.418177001953125,1.5885013635873793,-0.9694867641251533,-0.4515141528841108
1789061765355137000,7.428136962890625,1.4584329681724308,-0.9902300577506422,-0.41269108575396235
1789061765365098000,7.438097900390625,1.2378794151902197,-1.0491063173502684,-0.42103703542537985
1789061765375058200,7.44805810546875,1.0244389090836048,-1.0732041090354323,-0.37525180113241074
1789061765385019100,7.45801904296875,0.8714291985422372,-1.011643651853129,-0.21739720784313976
1789061765394979800,7.467979736328125,0.71025021007061,-0.9684883276723325,-0.17320114243775606
1789061765404940000,7.47793994140625,0.5597919375777244,-0.9505084343455731,-0.20887363658249378
1789061765414901000,7.48790087890625,0.4581026644289493,-0.8780280122853815,-0.20615210266411305
1789061765424861000,7.49786083984375,0.3401204281270504,-0.8226438325852156,-0.1668725970033556
1789061765434822100,7.507822265625,0.12063947281241416,-0.8767336616259068,-0.24210757846869527
1789061765444782000,7.517781982421875,-0.14877017327547074,-0.8785992363020777,-0.34376506823971864
1789061765454743000,7.527742919921875,-0.37269115686416626,-0.8351612957876176,-0.44860169950351114
1789061765464704000,7.5377041015625,-0.49275429109334945,-0.808838667659834,-0.43191126146540043
1789061765474664000,7.547663818359375,-0.6092892511963844,-0.7943556765381247,-0.36389490614198144
1789061765484625200,7.557625244140625,-0.7742372368127107,-0.8109875162567943,-0.34778986677639184
1789061765494585000,7.567585205078125,-1.0183382541209458,-0.7809814503759145,-0.28883192024268206
1789061765504546000,7.577546142578125,-1.203503098335862,-0.6647820058375596,-0.1126432864267379
1789061765514506000,7.587506103515625,-1.402014330857992,-0.4980964558389038,0.07900317489244044
1789061765524467000,7.597467041015625,-1.6273410895913838,-0.4119377831686288,0.2220109852489084
1789061765534428200,7.60742822265625,-1.5104232676506042,-0.414323655391857,0.3544939675249159
1789061765544388000,7.61738818359375,-0.8938140488296746,-0.7742530189037322,0.23851459547802806
1789061765554349000,7.62734912109375,-0.37785306967198845,-1.4197162840262054,0.01234042613506317
1789061765564309200,7.637309326171875,-0.308942030531168,-1.5312617652788758,0.02655672914460301
1789061765574270000,7.64727001953125,-0.4306646224051714,-0.9740785488948226,0.4987630299888551
1789061765584230000,7.65722998046875,-1.4367922142505645,0.04501081585437059,1.3225012336820363
1789061765594190800,7.66719091796875,-3.2757273052990437,0.9314470293924212,1.2625883245110512
1789061765604152000,7.677152099609375,-4.476874780419468,1.3571164738588035,0.7618069404371083
1789061765614112000,7.687112060546875,-4.20918830486238,1.521969913059473,0.8458709789156913
1789061765624072700,7.69707275390625,-3.912188056537509,1.5275412834510207,0.8486046416632831
1789061765634033000,7.707032958984375,-3.284924757233262,1.5258835793718695,1.0167629676282406
1789061765643993900,7.716993896484375,-2.061467835149169,1.6055550819799302,1.0417882494218647
1789061765653953800,7.726953857421875,-0.531929532662034,1.6877809452459216,0.5605933170884847
1789061765663915000,7.7369150390625,0.5488105248361825,1.4324454172179102,-0.04319046855941414
1789061765673875700,7.746875732421875,0.785495712929964,1.2220282044552266,-0.6248780846681445
1789061765683836000,7.7568359375,1.1039297944277524,0.899539513804391,-0.8204973220758139
1789061765693796900,7.766796875,1.0672323411494493,0.5442541036408394,-1.0256543492879717
1789061765703756800,7.7767568359375,1.0440186388224362,0.362866805203259,-1.1716793155085294
1789061765713718000,7.786718017578125,1.2236848856210707,0.24064137837365268,-1.0949972770400345
1789061765723678000,7.796677978515625,1.3894810124993324,0.174252624252066,-0.8087409794390201
1789061765733639000,7.806638916015625,1.3705319818794726,0.1385821759339422,-0.2916608965909108
1789061765743598800,7.816598876953125,1.174015722566843,0.0608214753832668,0.14965470102503894
1789061765753559800,7.826559814453125,0.9729635733902454,0.13448533507436514,0.47772966737560923
1789061765763521000,7.83652099609375,1.0218670127689837,0.20247794419601559,0.8936970713865011
1789061765773481000,7.84648095703125,1.1261433798015117,0.2917303450979292,1.146157628500089
1789061765783441700,7.856441650390625,1.0564157635807991,0.2969252833925187,1.1206124875508248
1789061765793401900,7.86640185546875,1.00238489818573,0.24027057229988275,0.9891218773130327
1789061765803362800,7.87636279296875,0.9734463884711265,0.2766492419525981,0.7163166705027222
1789061765813322800,7.88632275390625,0.91392744705379,0.4646487981367856,0.3857923382386565
1789061765823284000,7.896283935546875,0.8964473199427128,0.6391540819756686,0.1839787031702697
1789061765833245000,7.906244873046875,0.9184270965605974,0.7569462755981833,0.10435396231338381
1789061765843204900,7.916204833984375,0.7872931177407503,0.8218345620289444,-0.08031637638285756
1789061765853165800,7.926165771484375,0.6830255185365677,0.8452715517178178,-0.23460713971070943
1789061765863125800,7.936125732421875,0.7555453958243131,0.8078182385709136,-0.3080789108958095
1789061765873087000,7.9460869140625,0.9021797261148691,0.6696257195416837,-0.3176644122995436
1789061765883048000,7.9560478515625,1.0700748710989951,0.5701183204766362,-0.17358933803774415
1789061765893008000,7.9660078125,1.047980528190732,0.45971148786507543,-0.09559650923162698
1789061765902968800,7.97596875,1.0406482856065034,0.3282583600934595,0.0006901011560112237
1789061765912928800,7.9859287109375,1.013677276572585,0.27837511589713393,0.20040859057605265
1789061765922890000,7.995889892578125,0.7831839288562535,0.2552511376801878,0.3286725669175386
1789061765932850000,8.005849853515626,0.5626385591804981,0.17292174097448587,0.38620033451765773
1789061765942811100,8.01581103515625,0.4229816666871309,0.10678184704743325,0.4431197609610855
1789061765952771800,8.025771728515625,0.26804244938790794,0.03623100481033325,0.4068821072142571
1789061765962731800,8.035731689453126,0.15724749424159526,0.016213833502307533,0.37366540872380133
1789061765972693000,8.04569287109375,0.08522153795063495,0.10638159568347036,0.4281500092357397
1789061765982653000,8.05565283203125,-0.04930383687317371,0.15705898593217132,0.5097513108626007
1789061765992614000,8.06561376953125,-0.2663461668640375,0.13862068131342528,0.5244977021608501
1789061766002574000,8.075573974609375,-0.4310428080677986,0.09120850340574979,0.5131494288682937
1789061766012534800,8.08553466796875,-0.4961445180535316,0.054226607162877916,0.41218072507902975
1789061766022496000,8.09549609375,-0.4649415705382824,0.020281740528345107,0.3032055327057838
1789061766032456000,8.1054560546875,-0.369474532905221,-0.07972659379616379,0.24071999656781554
1789061766042417000,8.1154169921875,-0.3846563199460506,-0.12462708114385604,0.19968816734701395
1789061766052377000,8.125377197265625,-0.3250532073765993,-0.23387400313057005,0.10712927224561572
1789061766062337800,8.135337890625,-0.3302542831510305,-0.2695561418864876,0.1236175387751311
1789061766072297700,8.145297607421876,-0.4861579615682363,-0.3397877621065825,0.15349939375445246
1789061766082259000,8.155259033203125,-0.5405336948782206,-0.47207032643966373,0.19250263975709675
1789061766092220000,8.165219970703125,-0.5557452925354242,-0.4889820790782571,0.21942973658405243
1789061766102180000,8.17518017578125,-0.6484259143203497,-0.519123023385182,0.22269969816543161
1789061766112140800,8.185140869140625,-0.7351268771737813,-0.5585284935131669,0.2472027096506208
1789061766122100700,8.195100830078125,-0.6212620130628347,-0.5412151743363589,0.3244775263804942
1789061766132062000,8.20506201171875,-0.587413519474864,-0.5063183407392352,0.27523031506538387
1789061766142022000,8.21502197265625,-0.5657230811923742,-0.4846779521435499,0.14812069639079273
1789061766151982800,8.22498291015625,-0.4657733451873064,-0.4146618743702769,0.04475063054822385
1789061766161943800,8.23494384765625,-0.3105903822600841,-0.3167052118785679,-0.06362067764773964
1789061766171903700,8.24490380859375,-0.04841653264462947,-0.34387773483395573,-0.28502544063180685
1789061766181865000,8.254864990234376,0.24516543166935442,-0.44984468530192967,-0.6217180132020265
1789061766191825000,8.264824951171875,0.5439034635722637,-0.6137079444214701,-0.9157713213548063
1789061766201785900,8.274785888671875,0.6926373964905739,-0.8898797781206667,-1.231515725377202
1789061766211746000,8.28474609375,0.6769038207858801,-1.1688805516354739,-1.3427671921193598
1789061766221706800,8.294706787109375,0.13154372866451738,-0.8704292277194559,-1.2177766844905913
1789061766231668000,8.30466796875,-0.46607963465750213,-0.2971335193157196,-1.1260603776931761
1789061766241628000,8.3146279296875,-1.1094348215848207,0.40465193700939417,-0.6173363640516996
1789061766251588900,8.3245888671875,-1.7345073328465221,1.0156507686026395,-0.022893165135756132
1789061766261549000,8.334549072265625,-2.2099036619037387,1.195449482674524,0.29256555381305516
1789061766271509800,8.344509765625,-2.1156939308553935,1.2583403116777538,0.4254235799465328
1789061766281469700,8.3544697265625,-1.8763596895575523,1.3506290115356445,0.48990087442360813
1789061766291431000,8.364430908203126,-1.4925433275669813,1.230071956309676,0.39994989679828286
1789061766301392000,8.374391845703125,-0.70269701821208,1.2226608763355762,0.30065964761525393
1789061766311352000,8.38435205078125,0.1818073504805565,1.2509162991568445,0.10614924823231994
1789061766321313000,8.39431298828125,0.7853717942893504,1.006118531756103,-0.46286133019812403
1789061766331273000,8.40427294921875,1.1972422843754291,0.7261538085799664,-0.9320508405044674
1789061766341234000,8.41423388671875,1.7869746021866797,0.6110624714139848,-1.1606472685582936
1789061766351193900,8.42419384765625,1.9899439831614494,0.5541423873834311,-1.3803613019764422
1789061766361154800,8.43415478515625,1.7859060961723328,0.5039160288378596,-1.5256488938331603
1789061766371116000,8.444115966796875,1.2467150480747222,0.5235732807923108,-1.6837633801676333
1789061766381076000,8.454075927734374,0.5113870953708887,0.5711508783947676,-1.773612577918917
1789061766391037000,8.464036865234375,0.1130301668524742,0.6705524059325456,-1.4057431421227753
1789061766400996900,8.473996826171875,-0.1060503909677267,0.7758690757982433,-1.0208018677555024
1789061766410957800,8.483957763671874,-0.24434008676111696,0.8881883179023862,-0.8377806114405393
1789061766420918000,8.49391796875,-0.20670564489364623,1.012876335453242,-0.6286737506240606
1789061766430879000,8.50387890625,-0.20103519804179668,1.0422519944760948,-0.4916343471527099
1789061766440840000,8.51383984375,-0.23017653685212133,0.9802123024094849,-0.4331777012046426
1789061766450799900,8.5237998046875,-0.22303134127259253,0.9414511945996433,-0.41921157356388866
1789061766460760800,8.5337607421875,-0.18828852919340133,0.9293066563628614,-0.4202328794356435
1789061766470721000,8.543720947265625,-0.1955652421981096,0.8813984385665505,-0.4049507007602602
1789061766480682000,8.553681884765625,-0.18785130681991577,0.7359260647274554,-0.3901777867812663
1789061766490642000,8.563641845703126,-0.13549860377013684,0.5712770620577037,-0.46184207015298306
1789061766500603000,8.573602783203125,0.00031330373287200925,0.4275103961579501,-0.5624898714248091
1789061766510563800,8.583563720703125,0.23863398407399652,0.2623001794088632,-0.5556318222235888
1789061766520523800,8.593523681640624,0.4077355822384357,0.08585325998291372,-0.5692436565339565
1789061766530485000,8.603485107421875,0.3504331478267908,-0.08459186174497008,-0.651189606880024
1789061766540445000,8.61344482421875,0.2674842309832573,-0.12581340485159306,-0.7114066866293549
1789061766550406000,8.623406005859374,0.07458557764589786,-0.08350402997564524,-0.7578980964303016
1789061766560365800,8.63336572265625,-0.015226795226335525,-0.042080607621371745,-0.7580957378942519
1789061766570326800,8.643326904296876,-0.059472179666161536,-0.003239054986461997,-0.6785261612907052
1789061766580288000,8.6532880859375,-0.07664543278515339,0.014211882562749087,-0.5788695630133152
1789061766590247400,8.663247314453125,-0.024915830069780348,0.0006831599585711955,-0.47910212477259334
1789061766600208600,8.673208740234376,0.02908230209946632,-0.03251052298247814,-0.33445348840653893
1789061766610168600,8.68316845703125,0.054446460458636284,-0.0630830271070823,-0.23062632644623515
1789061766620129300,8.69312939453125,0.12921090180277825,-0.11043006735667586,-0.164847374786064
1789061766630090500,8.703090576171874,0.18102876732349393,-0.12224694454167037,-0.12220971780382096
1789061766640050400,8.713050537109375,0.1477209564834833,-0.1461378154778853,-0.1703060785833746
1789061766650011600,8.72301171875,0.11109890652894973,-0.17295268410202114,-0.2278303390521556
1789061766659971600,8.7329716796875,0.1764776798903942,-0.18747710321266203,-0.22300876411460338
1789061766669932300,8.742932373046875,0.24356150360405443,-0.18167488320730626,-0.22240414928495883
1789061766679892500,8.752892578125,0.2056272020071745,-0.22783348085731267,-0.2510974520668387
1789061766689853400,8.762853515625,0.17317805382311344,-0.30818233473766593,-0.307001929314062
1789061766699814400,8.772814453125,0.08388765899837017,-0.32837829667869955,-0.3626946635067463
1789061766709774600,8.782774658203126,0.0018541034340858458,-0.31973573868088423,-0.37783268447108564
1789061766719735300,8.7927353515625,-0.12240998961627482,-0.2931068941481411,-0.392375296825543
1789061766729695200,8.8026953125,-0.38697804089188576,-0.2130256051627919,-0.4432707137390971
1789061766739656400,8.812656494140626,-0.5739011269509792,-0.18328911347091198,-0.5851129143822937
1789061766749616400,8.822616455078125,-0.6670002664089203,-0.09398169444613158,-0.7304505559258162
1789061766759577600,8.83257763671875,-0.6101555126368999,-0.02639854290820658,-0.789795967407152
1789061766769538300,8.842538330078124,-0.568642183509469,-0.0009308876419439912,-0.8699538652926683
1789061766779498200,8.852498291015625,-0.4802531214386224,-0.05033522574752569,-0.9006210984960198
1789061766789459500,8.86245947265625,-0.3021796967893839,-0.10397219645418226,-0.9162804399207234
1789061766799419400,8.87241943359375,-0.23940730653405187,-0.18604126172326504,-0.937100232848525
1789061766809380600,8.882380615234375,-0.204850372415781,-0.23998028411641714,-0.9421287285350263
1789061766819340500,8.892340576171875,-0.2220528516292572,-0.2536539316166192,-0.907212605715543
1789061766829301200,8.90230126953125,-0.3927034328013658,-0.21543073007576166,-0.8874148493118583
1789061766839262500,8.912262451171875,-0.6970131273567676,-0.1640148694846779,-0.9148578597716986
1789061766849222400,8.922222412109376,-0.7871054862141609,-0.007108370700478554,-0.8612544260084628
1789061766859183600,8.93218359375,-0.4701671962320804,0.0789307672433555,-0.8568763570547103
1789061766869143600,8.9421435546875,0.1561871715337038,-0.11228767792209982,-1.1254279250085353
1789061766879104300,8.952104248046876,0.3897013283759355,-0.16880078858695924,-1.4540087219893931
1789061766889065500,8.9620654296875,0.43101416649520397,-0.0792412214320153,-1.5625389470741151
1789061766899025400,8.972025390625,0.5200508788198233,-0.24234635566063223,-1.6219073741048573
1789061766908986400,8.981986328125,0.4110872307538986,-0.26706797833256424,-1.7466048901364206
1789061766918946600,8.991946533203125,-0.03863046716749668,0.01698138380870223,-1.6752105097472667
1789061766928907500,9.001907470703125,-0.6649234601348638,0.27729243522696195,-1.486201703455299
1789061766938867500,9.011867431640624,-1.5196780027300119,0.6250455501895398,-1.1577255358926952
1789061766948828400,9.021828369140625,-2.0412404551565646,0.9941945774674416,-0.6881578399237245
1789061766958789400,9.031789306640626,-2.493423666408658,1.3231677347667514,-0.5321876721415668
1789061766968749600,9.04174951171875,-3.0075960085839033,1.656874934850633,-0.7956251119520514
1789061766978710500,9.05171044921875,-2.8564228658199307,1.825890462166816,-0.8719210737124085
1789061766988670500,9.06167041015625,-2.248689611893892,2.0192858129799367,-0.8215555989570915
1789061766998631400,9.07163134765625,-1.4102555049806833,2.1538293079823254,-0.9844972131870686
1789061767008591400,9.08159130859375,-0.6822445972919464,2.145359293539822,-1.5472376253068447
1789061767018552600,9.091552490234376,-0.25745091274678705,1.966898623138666,-2.1540382745578883
1789061767028513500,9.101513427734375,0.41954701606333256,1.7044927183330059,-2.5179265317633748
1789061767038473500,9.111473388671875,1.0403776519715786,1.5583414953842758,-2.7547596038952467
1789061767048434400,9.121434326171874,1.415774560663104,1.378335495237261,-2.9459210581764577
1789061767058394400,9.131394287109375,1.6157324848622083,1.2088947282463312,-2.894766917261481
1789061767068355300,9.141355224609375,1.5584879181176423,0.9799332662723957,-2.5135706746414304
1789061767078315500,9.1513154296875,1.6033505576729774,0.7062316220790147,-2.118235139770806
1789061767088276500,9.1612763671875,1.4228496136158704,0.5589631586033851,-1.975867527014017
1789061767098237400,9.171237548828126,1.2377478977650402,0.4073971440643072,-1.8713751791432498
1789061767108197400,9.181197265625,1.1200912401556968,0.29566695389449593,-1.763099074950069
1789061767118158300,9.191158447265625,0.8255325397640466,0.2811453843280673,-1.6704013558998703
1789061767128118500,9.201118408203126,0.5521855542272329,0.22041604420766234,-1.8023717855438588
1789061767138079500,9.21107958984375,0.36866204747855663,0.2665811446636915,-1.9301918175101278
1789061767148040400,9.22104052734375,0.18482465247511862,0.3712137777879834,-1.9825380908191204
1789061767158000400,9.23100048828125,-0.02674479906260967,0.49544952152669425,-2.0642931217029687
1789061767167961300,9.24096142578125,-0.13689093491137028,0.6281615633182227,-2.169625865920633
1789061767177921500,9.250921630859375,-0.23617957665920256,0.7794268413450568,-2.240875723272562
1789061767187882500,9.260882568359374,-0.308151172414422,0.8116477337311953,-2.259163951896131
1789061767197842400,9.270842529296875,-0.32958149845600127,0.7709644987523555,-2.206794882233441
1789061767207803400,9.280803466796876,-0.24769465788602826,0.7822052930824458,-2.144549730722606
1789061767217764400,9.290764404296874,-0.11882511686682701,0.8011017897974699,-2.0062009982183575
1789061767227724500,9.300724609375,-0.004215571868419647,0.7202170389421284,-1.9353860251523554
1789061767237685500,9.310685546875,0.15729776312410831,0.5948976646851748,-1.8786305570989845
1789061767247645400,9.3206455078125,0.33678865335583685,0.5036228180449456,-1.6874474755078552
1789061767257606400,9.3306064453125,0.48774669206440446,0.42884398284927006,-1.5764546597018838
1789061767267567400,9.3405673828125,0.5642530086398124,0.29230529544167216,-1.567726724975556
1789061767277527300,9.35052734375,0.604964958256483,0.21906959803476928,-1.48353759881258
1789061767287488500,9.360488525390625,0.5885825632542372,0.20787593078203498,-1.34504697361961
1789061767297448400,9.370448486328126,0.6144149236470461,0.21234284706301987,-1.2597986937925219
1789061767307409400,9.380409423828125,0.6425228277564048,0.22566556223370132,-1.079439130967483
1789061767317369300,9.390369384765625,0.6580868921130896,0.23975217444896696,-0.9081692488532512
1789061767327330300,9.400330322265624,0.6827969704777002,0.2801503088761121,-0.7493009484767913
1789061767337291500,9.41029150390625,0.7677946365445851,0.32887985299266875,-0.5460018240910023
1789061767347251500,9.42025146484375,0.7732026330679654,0.39738987358454614,-0.3967118647251278
1789061767357212400,9.43021240234375,0.6018003567457199,0.40242059776075184,-0.4064789332408458
1789061767367172400,9.44017236328125,0.47858372692167755,0.392653236984089,-0.45983920589797195
1789061767377133300,9.45013330078125,0.3339747649788856,0.4578515392120927,-0.42292394515052434
1789061767387093500,9.460093505859374,0.3049585138529539,0.4385098925454542,-0.3427238155584782
1789061767397054500,9.470054443359375,0.3729530226707458,0.35014914325363933,-0.2751034738153219
1789061767407015400,9.480015380859374,0.3686486034750938,0.24900066245067864,-0.11799889517575501
1789061767416975600,9.4899755859375,0.31983868759870526,0.056228375439345835,0.11536262838803231
1789061767426936300,9.499936279296875,0.32624913916289805,-0.12115524031482636,0.38643348568640645
1789061767436896300,9.509896240234376,0.21726620187461376,-0.24766733148768544,0.6076150343738496
1789061767446857500,9.519857421875,0.10407529150247573,-0.3695930447183549,0.710649803847447
1789061767456818400,9.529818359375,0.05631634598374367,-0.4201151348074898,0.7902422498699277
1789061767466778600,9.539778564453124,0.13639467582702636,-0.4836059024652466,0.8891874850075692
1789061767476739300,9.5497392578125,0.2438894203841686,-0.5620465115714818,0.9663470778599381
1789061767486699300,9.55969921875,0.312934899559617,-0.6912791137494146,0.8827749876167624
1789061767496660500,9.569660400390624,0.4354910196483135,-0.7738163079869002,0.8293569934230297
1789061767506620400,9.579620361328125,0.4747159455776214,-0.8420205870978533,0.8246239735517651
1789061767516581600,9.58958154296875,0.4515601109176874,-0.9006883185133338,0.8599556183695792
1789061767526542300,9.599542236328125,0.4131073384046554,-0.8708053675554692,0.9508874967910349
1789061767536502300,9.609502197265625,0.34214813456237314,-0.9046136021982878,1.0504991599481552
1789061767546463500,9.61946337890625,0.21141221514940262,-0.997681250539422,1.0228506169788538
1789061767556423400,9.62942333984375,0.11552139914631843,-1.055169855172932,0.9643917790737002
1789061767566384600,9.639384521484375,0.05645663123726844,-1.019771720990166,0.9665462536938488
1789061767576344600,9.649344482421874,-0.018024316990375516,-1.0531352075401692,1.0094672576621173
1789061767586306000,9.65930615234375,-0.08056932823061942,-1.154502701388672,1.0292162795532493
1789061767596267000,9.66926708984375,-0.17504150960743425,-1.2040768796358257,1.0060028694871812
1789061767606227000,9.67922705078125,-0.2918564556956291,-1.2050698361959307,0.983083693127334
1789061767616188200,9.689188232421875,-0.45930794856548307,-1.1716116570997983,0.9848774446763098
1789061767626148000,9.699148193359376,-0.52891573779881,-1.1485619862280785,1.0311590841840952
1789061767636109000,9.709109130859375,-0.5056961902529001,-1.1004100958690046,1.0956346981607377
1789061767646070000,9.719070068359375,-0.5000754277616739,-1.0363453277155756,1.1410029491506517
1789061767656030000,9.729030029296876,-0.45903731493055816,-1.049803798095137,1.1508905753061174
1789061767665991200,9.7389912109375,-0.39846272698044777,-1.0443263895973562,1.0263614746440202
1789061767675951000,9.748951171875,-0.23054244755506514,-1.0399264010727405,0.7976258573152124
1789061767685912000,9.758912109375,0.17468962742984293,-1.1482971978120504,0.5316343491077423
1789061767695872000,9.7688720703125,0.43638124648630616,-1.2018192369021474,0.22844693658053875
1789061767705833000,9.7788330078125,0.5596890617251395,-1.2599750732727348,-0.2148693698659539
1789061767715794200,9.788794189453125,0.8746464070230722,-1.5112847067855297,-0.5964707957534119
1789061767725754000,9.798754150390625,1.1807640277832745,-1.9964213624820113,-0.9688613987684249
1789061767735714800,9.80871484375,0.9879974763929843,-2.24991564655751,-1.1521835377261043
1789061767745675000,9.818675048828124,0.40377369287014003,-2.0092061713837084,-1.1169560839351267
1789061767755636000,9.828635986328125,-0.554399138623476,-1.2753962220273911,-0.5527149483961984
1789061767765597200,9.83859716796875,-2.464693246486783,-0.23646403789008036,0.3934122751904651
1789061767775557000,9.84855712890625,-3.8037580769568677,0.4447060072392225,0.718939420221746
1789061767785517800,9.858517822265625,-3.8210043953120705,0.7041022088348865,0.6757199447635561
1789061767795478000,9.86847802734375,-3.7935482331097123,0.8981512743163853,0.6106825321856886
1789061767805439000,9.87843896484375,-3.020390023705363,0.8650673353601247,0.666065469776839
1789061767815399000,9.88839892578125,-1.6165157441943883,1.0464440393384546,0.8780352457437663
1789061767825360100,9.898360107421874,-0.2622451612859964,1.2652851623795927,0.6487948206979781
1789061767835320800,9.90832080078125,0.29965690031349657,0.978142291202396,0.07058774018138647
1789061767845281000,9.918281005859376,0.8990425971329211,0.6668800010301172,-0.5119309199240059
1789061767855242000,9.928241943359374,1.5038865593582391,0.5991586100652814,-0.7006910852171481
1789061767865202000,9.938201904296875,1.8063865741431713,0.3459375899732113,-0.9139259857490658
1789061767875163100,9.9481630859375,1.653808825278282,0.09563899666648358,-1.206339783066511
1789061767885124000,9.9581240234375,1.3432903392106295,-0.0579239273108542,-1.4037518221750855
1789061767895084000,9.968083984375,0.9585556933313608,-0.12451837833868339,-1.4786378440722823
1789061767905045000,9.978044921875,0.6499059237450361,-0.23240362005075438,-1.4355864917226135
1789061767915005000,9.9880048828125,0.42194297128915786,-0.2538748626246117,-1.0972405989874154
1789061767924966100,9.997966064453125,0.08218319316804408,-0.27401642749728633,-0.7660956506069749
1789061767934926000,10.007926025390624,-0.2955576483011246,-0.2375950146813877,-0.5872456155620515
1789061767944887000,10.017886962890625,-0.6565624590247869,-0.1328507561424747,-0.33578762308713045
1789061767954848000,10.027847900390626,-0.8893050469726324,-0.10616601670403032,0.01872716803010553
1789061767964808000,10.037807861328124,-0.8915770835578442,-0.10073730618618428,0.3149795571297407
1789061767974769200,10.04776904296875,-0.8085691300034522,-0.06416530591845512,0.5084213043678552
1789061767984729000,10.05772900390625,-0.7118143906474113,-0.12139566147457807,0.5847600092913955
1789061767994690000,10.06768994140625,-0.7056546989738941,-0.21088431881777941,0.5684907923400402
1789061768004651000,10.077651123046875,-0.7635147672683,-0.28384192993566393,0.4392786484282464
1789061768014611000,10.08761083984375,-0.7474836699217557,-0.44059290936458856,0.20901531007550656
1789061768024572200,10.097572265625,-0.5830073934704065,-0.5895322651945054,-0.0084716949429363
1789061768034532000,10.107531982421875,-0.30881226667165756,-0.7076524486623704,-0.0847931564707309
1789061768044493000,10.1174931640625,-0.0315799641340971,-0.842041629885882,-0.19312285401467233
1789061768054453200,10.127453369140625,0.13864917675554753,-0.9069014208745211,-0.30492716886661947
1789061768064414000,10.1374140625,0.3462614151000976,-0.9602020722988992,-0.38156043628994374
1789061768074375000,10.147375,0.6319155090242624,-0.9638727967008948,-0.3914595336874947
1789061768084335000,10.157335205078125,0.8960936841994523,-0.9410255895987153,-0.27990163134466856
1789061768094296000,10.167296142578126,1.016191305220127,-0.9649640260037035,-0.21025022216532377
1789061768104256000,10.177256103515624,0.991179613560438,-0.9776629832528531,-0.2730737215533852
1789061768114217000,10.187217041015625,1.0257061525404452,-0.9849794437460601,-0.2737041649440303
1789061768124178000,10.197177978515626,1.1272755987018346,-0.9962276907302439,-0.20692257557995616
1789061768134138000,10.20713818359375,1.2016226914167403,-1.0470783186540007,-0.14134890070091932
1789061768144099000,10.21709912109375,1.3037047632753849,-1.120625785423815,-0.09466065315362066
1789061768154059000,10.22705908203125,1.4226678273081779,-1.166754061000794,-0.08731175169553607
1789061768164020000,10.23702001953125,1.5294623146414756,-1.2148713915031402,-0.18369217784646896
1789061768173980000,10.24697998046875,1.392176827454567,-1.1611477654263376,-0.19435900821350513
1789061768183941000,10.256941162109374,1.3098176931977272,-1.2111902918376027,-0.20271887681242076
1789061768193902000,10.266902099609375,1.0628116020977496,-1.1952280219435691,-0.17592033826857803
1789061768203862000,10.276862060546875,0.9900836350172757,-1.1784447179902344,-0.18157244574613868
1789061768213823000,10.286822998046874,0.7582458869546651,-1.1374633768476545,-0.1580496044047177
1789061768223783000,10.296782958984375,0.5309060348331928,-1.1715494785837828,-0.08587890588082372
1789061768233744000,10.306743896484376,0.23815876777768133,-1.1352163285732269,-0.025692221269756555
1789061768243705000,10.316705078125,-0.09099193804562092,-1.0648377010978758,-0.03780417241118848
1789061768253665000,10.3266650390625,-0.3905184899777174,-0.9979458928249776,-0.08659808700084685
1789061768263626000,10.3366259765625,-0.8125503085941076,-0.8459040774676948,-0.07379026254974305
1789061768273586000,10.3465859375,-1.1252461387008428,-0.7081191893912852,-0.13029942769184708
1789061768283547000,10.356546875,-1.2434528314083815,-0.5773921108718961,-0.09829342016540467
1789061768293508000,10.366508056640624,-1.3325304602652788,-0.4814687808386981,-0.08477781277112663
1789061768303468000,10.376468017578125,-1.6565899804294109,-0.35439825206547976,-0.10717157701738178
1789061768313429000,10.386428955078125,-1.9325988786518573,-0.12256138078570365,0.018217939866334198
1789061768323389000,10.396388916015624,-1.9092302780240773,-0.04365684396214783,0.025069340131059287
1789061768333350000,10.406349853515625,-1.5455033488601446,-0.3642313715547323,-0.291107463959232
1789061768343310000,10.41631005859375,-1.2197989840984345,-0.5920348956651985,-0.3250167478237301
1789061768353271000,10.42627099609375,-0.9312409854263066,-0.5381810673374683,-0.1856689212795347
1789061768363232300,10.436232177734375,-1.1128630424678325,-0.541952037243545,0.01372077457755804
1789061768373192200,10.446192138671876,-1.2699883716344833,-0.5107550810776651,0.10447232799604535
1789061768383153000,10.45615283203125,-1.2658376816958188,-0.02806844888180494,0.1543044265270233
1789061768393113000,10.466113037109375,-1.0268863022357224,0.7872591424059122,0.567097876676917
1789061768403074000,10.476073974609376,-1.0541361282110213,1.4420482350826263,0.9157830117926001
1789061768413035000,10.486034912109375,-1.3541986867159603,1.8086770231679081,1.0302757254783064
1789061768422995200,10.4959951171875,-1.3076251515895128,2.024064863950014,1.310202308601141
1789061768432956000,10.505955810546874,-1.067943704289198,2.168371920336783,1.1376998159520328
1789061768442915800,10.515915771484375,-0.8522995506584644,2.179117478495836,0.5950603079009801
1789061768452877000,10.525876953125,-0.14038988294303417,2.016429839026928,-0.0852745102468878
1789061768462837000,10.5358369140625,0.5436316608935594,1.8086378602012991,-0.6296783976219594
1789061768472798200,10.545798095703125,1.0788865385860205,1.3626315840184688,-0.8903062599044292
1789061768482759000,10.555759033203126,1.7374615064769983,0.962746496084705,-0.8463133889209479
1789061768492718800,10.56571875,2.338055410042405,0.7963312874600291,-0.7024747537635266
1789061768502680000,10.57568017578125,2.5884838768064973,0.7613608771700412,-0.3622666108204052
1789061768512640000,10.585639892578126,2.629292857056856,0.5269383002460003,-0.14346823094245045
1789061768522601200,10.595601318359375,2.410788637819886,0.3201747146200388,0.01674202209487557
1789061768532562000,10.60556201171875,1.9522388141453264,0.2771975234851241,0.13066705542784182
1789061768542521900,10.61552197265625,1.3682061692804097,0.21746048233769832,0.22583521971218287
1789061768552483000,10.625483154296875,0.8104442762255668,0.187131906504184,0.49005051202736793
1789061768562443000,10.635443115234375,0.2976572509288788,0.20495485570356248,0.7275662326611578
1789061768572404000,10.645404052734374,-0.32684184435904023,0.2540703303977847,0.6085270711848512
1789061768582365000,10.655364990234375,-0.7828191871970891,0.2870133265133947,0.5110266645606607
1789061768592325000,10.6653251953125,-1.0468033011049032,0.28413309490196403,0.5592064658399671
1789061768602286000,10.6752861328125,-1.1339543458133936,0.31702699117884037,0.6225893892090767
1789061768612246300,10.685246337890625,-0.7934925569027662,0.4595542514767498,0.7131222583755851
1789061768622207200,10.695207275390626,-0.387807477453351,0.5907808770161121,0.7207862171322107
1789061768632167200,10.705167236328125,-0.1178407820045948,0.555052414900437,0.5287233570318669
1789061768642128100,10.715128173828125,0.09389175114035606,0.3769526137009263,0.20375527065545318
1789061768652089000,10.725089111328124,0.5929015954971313,0.2258374847345054,0.11861622335650027
1789061768662049300,10.73504931640625,1.0656745903134346,0.022261370038241145,0.17406871905252336
1789061768672010200,10.74501025390625,1.5559809037327765,-0.1869774465948343,0.28062925149947404
1789061768681970200,10.75497021484375,1.9198942953795193,-0.34679508358538147,0.35471016755886375
1789061768691931100,10.76493115234375,2.134731224280596,-0.5171386446349322,0.4480962341994047
1789061768701892000,10.77489208984375,2.2119781300902366,-0.6585227262470871,0.5376341009791941
1789061768711852000,10.78485205078125,2.34089969355762,-0.8073884688515216,0.6124458155311644
1789061768721813200,10.794813232421875,2.3760218603432177,-0.8946242692340165,0.7648086795363574
1789061768731773200,10.804773193359376,2.256650215509534,-0.9548715249259024,0.9062473408799618
1789061768741734100,10.814734130859375,2.1451626019239423,-1.025343895099312,1.0057090741723775
1789061768751695000,10.824695068359375,1.9868097767889499,-1.0718522560350596,0.9900766938198358
1789061768761655000,10.834655029296876,1.7115929057270287,-1.093860308899358,0.7807841742381453
1789061768771616300,10.8446162109375,1.3365087162464857,-1.1209667808812112,0.5835619586132467
1789061768781576200,10.854576171875,1.008432946178317,-1.0777121610444038,0.5372041851293295
1789061768791537400,10.864537353515624,0.679542937117815,-1.0138753564279526,0.5285828525826335
1789061768801497300,10.874497314453125,0.3989753526777029,-1.0445277573883534,0.5480422438774257
1789061768811458000,10.8844580078125,0.15319441945850848,-1.1300978895809501,0.6723124013423919
1789061768821419300,10.894419189453124,-0.08778115930557251,-1.224902810043469,0.7529250572580843
1789061768831379200,10.904379150390625,-0.2178957319498062,-1.3352151693046093,0.7767167786687612
1789061768841340400,10.91434033203125,-0.29625147578418254,-1.429252758656442,0.7137212471820413
1789061768851300400,10.92430029296875,-0.43334757787883277,-1.5006962388843297,0.6046070847295224
1789061768861261000,10.934260986328125,-0.5843704985171556,-1.533665319289267,0.5022270528376103
1789061768871222300,10.94422216796875,-0.829053115105629,-1.5354555637069045,0.3978555548675358
1789061768881182200,10.95418212890625,-1.1567740803867579,-1.4693752179473638,0.3362299965597689
1789061768891143200,10.96414306640625,-1.3514298065245152,-1.4562784204870463,0.3091251320131123
1789061768901103400,10.974103271484376,-1.55010002900064,-1.4406839609920978,0.28230639093145726
1789061768911064000,10.98406396484375,-1.6689140399515627,-1.410893510623276,0.24471805322803555
1789061768921025300,10.994025390625,-1.7294582327634096,-1.3682307191997767,0.21952179878167807
1789061768930985200,11.003985107421874,-1.7556237706333397,-1.2759433345161377,0.13298231010027228
1789061768940946200,11.0139462890625,-1.8370371484726666,-1.1755636095959692,0.03222695680074394
1789061768950906400,11.02390625,-1.837498920765519,-1.1279541555505246,-0.0981268679594621
1789061768960867000,11.0338671875,-1.693192156639695,-1.0762844663288444,-0.21809702667556702
1789061768970827000,11.043826904296875,-1.4305816691726445,-1.0572223307233304,-0.37214108523335304
1789061768980788200,11.053788330078126,-1.0325748692661523,-1.0824687809869646,-0.5597462718050926
1789061768990749200,11.063749267578125,-0.47961248544752594,-1.1972246756535023,-0.8872973604120313
1789061769000709400,11.07370947265625,-0.2617185070633888,-1.5725854170531033,-1.3529093775577843
1789061769010670000,11.083670166015626,-0.4936322429716587,-1.3291780810974538,-1.1858913807343692
1789061769020630000,11.093630126953125,-1.8088292911201715,0.04697144840285182,-0.456818835163489
1789061769030591200,11.10359130859375,-3.689906656849384,0.9915542920917272,-0.30270741045791655
1789061769040552200,11.11355224609375,-4.653677454480529,1.0774531447820366,-0.4510154826469719
1789061769050512100,11.12351220703125,-4.420027104038,1.2738400786265731,-0.07197163228783757
1789061769060473000,11.13347314453125,-3.9796407135635614,1.5422355792358518,0.40859183374159036
1789061769070433000,11.14343310546875,-2.5965707371503113,1.3353645146474242,0.9395333052143454
1789061769080394200,11.153394287109375,-0.9554466214001178,1.1014807207752018,1.060945442899689
1789061769090355200,11.163355224609376,0.2964922988027334,0.9659334555577486,0.7304517980348318
1789061769100315100,11.173315185546874,1.1778005018025637,0.667067778687179,0.07482472016401588
1789061769110276000,11.183276123046875,1.9625287374913691,0.45853287253975866,-0.3909912220560014
1789061769120236000,11.193236083984376,2.232677219247818,0.25253968676440414,-0.6743065708342939
1789061769130197200,11.203197265625,2.278646943262219,0.11085253055244683,-0.9740124248560518
1789061769140158200,11.213158203125,2.4225468801528214,0.03943966465853154,-1.0497801249586045
1789061769150118100,11.2231181640625,2.295888000920415,0.005830057860352098,-1.054425028154999
1789061769160079400,11.233079345703125,1.9803093088537453,-0.044176082063280046,-1.115041701681167
1789061769170039300,11.243039306640625,1.5746388424515723,-0.07487561010103673,-0.9865952083796262
1789061769180000300,11.253000244140624,1.252452130421996,0.054209217636659736,-0.6528934151232242
1789061769189960200,11.262960205078125,0.7579647319257259,0.24643055623434482,-0.46019532585926354
1789061769199921200,11.272921142578125,0.27948972607553,0.39520628246776757,-0.4549208925876766
1789061769209882400,11.28288232421875,-0.0027332243561744686,0.5499977618593722,-0.2976967792216688
1789061769219842300,11.29284228515625,-0.050852235358953474,0.6779414932705462,-0.10995097860284149
1789061769229803000,11.302802978515626,0.05803191772997379,0.7549588281080126,0.05054280408360064
1789061769239763200,11.31276318359375,0.2954559414923191,0.7733844924408942,0.1487308641783893
1789061769249724200,11.32272412109375,0.3351081529229879,0.7116670180659741,0.05374525338672101
1789061769259685400,11.332685302734374,0.25794892539680003,0.5357954143099487,-0.19427483706139026
1789061769269645300,11.342645263671875,0.4777572129696607,0.40380196911655364,-0.2302938065562397
1789061769279606000,11.35260595703125,0.6864572465509176,0.38824601500108835,-0.17418518503904343
1789061769289566200,11.362566162109376,0.8147305752426386,0.22412308203205464,-0.24356362249590455
1789061769299527200,11.372527099609375,0.8797790937364101,-0.008030600111931562,-0.3475135340530425
1789061769309488400,11.38248828125,1.0721329726725817,-0.14456073888689278,-0.38272359831780195
1789061769319448300,11.3924482421875,1.230351942294836,-0.23582382202409208,-0.4372274149868637
1789061769329409000,11.402408935546875,1.3540560633748768,-0.33967984475269913,-0.4949561119865626
1789061769339369200,11.412369140625,1.5505442656368016,-0.46349867825359103,-0.4815732641264796
1789061769349330200,11.422330078125,1.6575141095370054,-0.5295538895718753,-0.45610173640269785
1789061769359291100,11.432291015625,1.6223884356200695,-0.554764099478349,-0.4053253062263131
1789061769369251300,11.442251220703126,1.5667758539915084,-0.5759850936181843,-0.39416576043888923
1789061769379212000,11.4522119140625,1.4565198280274867,-0.5601889740712941,-0.47100631393734366
1789061769389172000,11.462171875,1.2921055108964443,-0.5284902789283543,-0.5542945457378402
1789061769399133200,11.47213330078125,1.2208686591565607,-0.48678442290350793,-0.6191465552788228
1789061769409093000,11.482093017578125,1.1916612693727016,-0.38703327821046113,-0.6001646087700501
1789061769419054300,11.492054443359375,1.1918746198624373,-0.38845571222901343,-0.6083783834291622
1789061769429015000,11.50201513671875,1.160582240498066,-0.45567982119619843,-0.6073385555200278
1789061769438975000,11.51197509765625,1.119197506186366,-0.5314483250163495,-0.5692306874545291
1789061769448936200,11.521936279296876,1.0414140092819928,-0.584002249726653,-0.4814294717416167
1789061769458896100,11.531896240234374,0.9333470177948474,-0.7059948907136917,-0.4652474216170609
1789061769468857300,11.541857421875,0.7969085028260946,-0.8016935451455414,-0.36439313798770306
1789061769478818300,11.551818359375,0.6433639547556639,-0.853989987963438,-0.27033169283624736
1789061769488778200,11.5617783203125,0.4527472748756408,-0.7914403005480766,-0.24084369601272046
1789061769498739200,11.5717392578125,0.25371874048113824,-0.6667502371706068,-0.11807444462999701
1789061769508699100,11.58169921875,0.0682528674930334,-0.47795638880357144,0.07494520473852753
1789061769518660000,11.59166015625,-0.25002982283532615,-0.3420652785845101,0.18895386123433708
1789061769528621300,11.601621337890625,-0.446001307746768,-0.32653833136782046,0.1923463532168418
1789061769538581200,11.611581298828124,-0.6406506041437388,-0.28545477195978164,0.16008498268984256
1789061769548542200,11.621542236328125,-0.803230107063055,-0.1878933923959732,0.14123868179209528
1789061769558502100,11.631502197265625,-1.04617494007349,-0.04103475183025002,0.12130392807051539
1789061769568463000,11.641463134765624,-1.247159284710884,0.12738909320309758,0.14901274985969065
1789061769578424300,11.65142431640625,-1.170399285635352,0.12701017688810826,0.10022738390266894
1789061769588384300,11.66138427734375,-0.7959720987588167,-0.1813235124863684,-0.19482757557332514
1789061769598345000,11.671344970703124,-0.7401479202061891,-0.5956742750808596,-0.46780726216770707
1789061769608305200,11.68130517578125,-1.1203244643896817,-0.7223154725261032,-0.7141920064989477
1789061769618266000,11.69126611328125,-1.535315716844797,-0.47744683184623715,-0.7616067416898906
1789061769628227300,11.701227294921875,-1.8874258579730987,0.05904051025062799,-0.6107509212467819
1789061769638187300,11.711187255859375,-2.1514438741505146,0.7967794696189463,-0.020731383991986513
1789061769648148000,11.72114794921875,-2.5313591370493174,1.4354520516879856,0.8327043310895562
1789061769658108200,11.731108154296875,-2.9291251139372587,1.9163935937821863,1.1561449156377464
1789061769668069000,11.741069091796875,-3.4578730939537285,2.1103490626960992,1.2402383994065225
1789061769678030300,11.7510302734375,-4.015511068367958,2.14962907981351,1.3222244625672697
1789061769687990300,11.760990234375,-3.758684424999356,1.792499795348942,1.164419845899567
1789061769697951000,11.770950927734376,-3.0623487585127354,1.4658451441250742,0.8078140007872134
1789061769707911200,11.7809111328125,-1.799290478402376,1.2230024563148616,0.4965850283626467
1789061769717872000,11.7908720703125,0.1008265188395977,1.0767219078980386,0.069073755421862
1789061769727832000,11.80083203125,1.2265519654899835,1.0314822517238558,-0.34773601769730444
1789061769737793300,11.810793212890625,1.7285305965244768,0.6490810172282159,-0.5049135154426098
1789061769747754000,11.82075390625,2.429571664223075,0.21137582866176963,-0.5838427117833868
1789061769757714000,11.8307138671875,2.863998269510269,-0.036141865222156046,-0.6781881615079939
1789061769767675100,11.840675048828125,3.014702041196823,-0.3409989645272493,-0.66466013302356
1789061769777635000,11.850635009765625,2.9642788449048996,-0.6956557213984429,-0.4428453644664958
1789061769787596300,11.86059619140625,2.7443659279137846,-0.8289812919784337,-0.0956296808488667
1789061769797557000,11.870556884765625,2.1637843002855774,-0.7844244304366409,0.1728753080168739
1789061769807517000,11.880516845703125,1.4925906738400458,-0.8433503743968903,0.3823907496342435
1789061769817478100,11.89047802734375,0.9365753321915864,-0.9541288898650556,0.4695667461208999
1789061769827438000,11.90043798828125,0.4756143557220697,-0.8289012855447828,0.5402084815118462
1789061769837399300,11.9103994140625,0.32407413321137424,-0.5443391515757888,0.6570088145527988
1789061769847360300,11.9203603515625,0.5705021321624517,-0.4177740150414407,0.9021846214856952
1789061769857320200,11.9303203125,0.7367261290639638,-0.3804859754588455,1.0428596780456603
1789061769867281200,11.94028125,0.7772229746252298,-0.2769016823437065,0.9093461836781352
1789061769877241000,11.950240966796875,0.7427753461003304,-0.19556663043759762,0.6984245285246521
1789061769887202300,11.960202392578125,0.6023696810662746,-0.12812800193689763,0.41198074552752073
1789061769897163300,11.970163330078124,0.5947673893690109,-0.023537527453899382,0.20942703268155455
1789061769907123200,11.980123291015625,0.5802905357271433,0.020737959863245486,0.14129041197933256
1789061769917084200,11.990084228515625,0.5549702165096998,0.039438057223334905,0.11763349592946469
1789061769927044000,12.000044189453124,0.6808978588581085,-0.04722703059911727,0.1433640033829957
1789061769937005000,12.010005126953125,0.8128612742394209,-0.1351236329779029,0.20141352983489633
1789061769946966300,12.01996630859375,0.8627198223859072,-0.2502858434230089,0.2566761289820075
1789061769956926200,12.02992626953125,0.9580699556410313,-0.5113669293656945,0.33401064000986513
1789061769966887200,12.03988720703125,1.0036521416425703,-0.754948525909707,0.40308717191070315
1789061769976847000,12.04984716796875,0.950384661835432,-0.8723792658086865,0.4000193453053012
1789061769986808000,12.05980810546875,0.9396563470721244,-0.9415154920075088,0.4402268159985542
1789061769996768300,12.069768310546875,0.9564204348683357,-0.9122095372200012,0.4062983890421688
1789061770006729200,12.079729248046876,1.0240209759324788,-0.8828110818434506,0.40413065308164803
1789061770016690200,12.089690185546875,1.0528858358889817,-0.8346481586337089,0.5218305653108284
1789061770026650000,12.099650146484375,0.9603963527619838,-0.7941554047256708,0.6121849726378917
1789061770036611000,12.109611083984374,0.8415607145011424,-0.8438277095850557,0.5422790772408247
1789061770046571300,12.1195712890625,0.6263911926448344,-0.8205109852749853,0.5266234256105498
1789061770056532200,12.1295322265625,0.4810135844171047,-0.8179685342505574,0.5259644867777824
1789061770066493000,12.139492919921874,0.46386721930503844,-0.8569374395921826,0.5223343866471201
1789061770076453000,12.149453125,0.4540566039085388,-0.8850107107795775,0.5997679376026616
1789061770086414000,12.1594140625,0.44598903278708457,-0.9624923751931637,0.7370861945480108
1789061770096374000,12.1693740234375,0.40038814208507534,-1.0309135849904267,0.7491014073166996
1789061770106335200,12.179335205078125,0.2730214068442583,-1.0489950389955192,0.7587648693274707
1789061770116296000,12.1892958984375,0.0009305588483810425,-1.0394828950889408,0.7371051915094256
1789061770126256000,12.199256103515625,-0.23729425990283487,-1.0080223195508122,0.759497640581429
1789061770136217000,12.209217041015625,-0.4286667265862226,-0.9472397148732096,0.8668146904841065
1789061770146177000,12.219177001953126,-0.6868781023114919,-0.863526608724147,0.915399346237257
1789061770156138200,12.22913818359375,-0.9558891044706106,-0.7908600164420903,0.9099618313584477
1789061770166099000,12.239098876953125,-1.1696522666603326,-0.6945219681281596,0.9145541275847703
1789061770176059100,12.24905908203125,-1.4083850349336862,-0.5649852684371173,0.9073878161519765
1789061770186020000,12.25902001953125,-1.5094272423505781,-0.5984601064071059,0.7544794470932334
1789061770195980000,12.26897998046875,-1.4842244120329617,-0.6543048893563449,0.46257341663483525
1789061770205941200,12.278941162109374,-1.1872726790249346,-0.8381856851100921,-0.05756461531205568
1789061770215902200,12.288902099609375,-0.6006593700170516,-1.2184105984799563,-0.7493965178057551
1789061770225862100,12.298862060546876,-0.40510289564728735,-1.6408143191486597,-1.5195003080755471
1789061770235823000,12.308822998046875,-0.8170294998347759,-1.4856540064446626,-1.5294212519787251
1789061770245783000,12.318782958984375,-2.0941303338229655,0.02911825019568205,-0.6548327126227319
1789061770255744300,12.328744140625,-4.436391963383556,1.4793011302866041,-0.38851756195146586
1789061770265705200,12.338705322265625,-5.32716649838686,1.7140715708002447,-0.2086729811775498
1789061770275665200,12.3486650390625,-5.51375991410017,1.8678622025862335,0.08186163306348025
1789061770285626000,12.358626220703124,-4.991667300319671,1.9089397706449032,0.5612430862341076
1789061770295586000,12.3685859375,-3.360548445755243,2.058949422587454,1.132834109611809
1789061770305547300,12.37854736328125,-1.5583178222477436,2.2945867090635,1.3170473521903157
1789061770315508200,12.38850830078125,0.02828209163248539,2.354167171409726,0.9842719530638306
1789061770325468200,12.39846826171875,0.23974749827384947,1.9832818949237465,0.0924473975509405
1789061770335429000,12.40842919921875,0.8091805399000644,1.388174021553993,-0.7478136325284839
1789061770345389000,12.41838916015625,1.2339298007816075,1.043260221670568,-1.299097561740875
1789061770355350300,12.428350341796875,1.6865192547470331,0.6852303351044654,-1.6550341292895376
1789061770365311200,12.438311279296874,1.9636019196808336,0.31766119742915033,-1.9483426834896205
1789061770375271200,12.448271240234375,2.050115835529566,0.12096746265776455,-2.071019361218065
1789061770385232100,12.458232177734375,2.118327786490321,0.12052578330487013,-1.944028327421844
