time,seconds_elapsed,z,y,x
1789061758004257500,0.077257568359375,0.06713838875293732,0.02564721368253231,0.06545764952898026
1789061758014218500,0.087218505859375,0.07935324311256409,0.00022574304603040218,0.063570536673069
1789061758024178400,0.097178466796875,0.07913806289434433,-0.0024118719156831503,0.0687241330742836
1789061758034139600,0.1071396484375,0.07679262012243271,0.015020648017525673,0.06488519161939621
1789061758044099600,0.117099609375,0.08690465241670609,0.039760325103998184,0.05249684676527977
1789061758054060500,0.127060546875,0.09727633744478226,0.06102513149380684,0.04038292542099953
1789061758064020700,0.137020751953125,0.1175946444272995,0.09236208349466324,0.04034498706459999
1789061758073981400,0.1469814453125,0.15712712705135345,0.10955172032117844,0.08860838413238525
1789061758083941400,0.15694140625,0.18606290221214294,0.18727387487888336,0.16951291263103485
1789061758093902600,0.166902587890625,0.2031947523355484,0.3269132673740387,0.2385535091161728
1789061758103862500,0.176862548828125,0.23787496984004974,0.47728976607322693,0.3078935742378235
1789061758113823500,0.186823486328125,0.2593480348587036,0.5485377907752991,0.35542061924934387
1789061758123783700,0.19678369140625,0.25392988324165344,0.5866273045539856,0.3565495014190674
1789061758133744400,0.206744384765625,-0.0018001868156716228,0.6413757801055908,0.36920884251594543
1789061758143704300,0.216704345703125,-0.25071361660957336,0.4408860206604004,0.3917118310928345
1789061758153665500,0.22666552734375,-0.23783482611179352,0.32406139373779297,0.32323798537254333
1789061758163625500,0.23662548828125,-0.17416425049304962,0.22583995759487152,0.19157138466835022
1789061758173586700,0.246586669921875,-0.11635740101337433,0.07159153372049332,0.020791644230484962
1789061758183546600,0.256546630859375,-0.06238017976284027,-0.08524398505687714,-0.11944153159856796
1789061758193507300,0.26650732421875,-0.01640229858458042,-0.1795095056295395,-0.1741018444299698
1789061758203467500,0.276467529296875,0.010740618221461773,-0.1976640820503235,-0.16252435743808746
1789061758213428500,0.286428466796875,0.017770299687981606,-0.17752738296985626,-0.1193942055106163
1789061758223388400,0.296388427734375,0.01956130936741829,-0.15886609256267548,-0.08024249225854874
1789061758233349600,0.306349609375,0.011059433221817017,-0.16028262674808502,-0.0716540589928627
1789061758243309600,0.3163095703125,0.00027814257191494107,-0.16761797666549683,-0.08774314075708389
1789061758253270500,0.3262705078125,-0.008851173333823681,-0.16238965094089508,-0.10356657207012177
1789061758263230500,0.33623046875,-0.01808222569525242,-0.1505546271800995,-0.09526327252388
1789061758273191400,0.34619140625,-0.02182316780090332,-0.14061304926872253,-0.08326812833547592
1789061758283151600,0.356151611328125,-0.018990639597177505,-0.12887264788150787,-0.09330739825963974
1789061758293112600,0.366112548828125,-0.01625184528529644,-0.13554759323596954,-0.1234341412782669
1789061758303072500,0.376072509765625,-0.008303647860884666,-0.16514290869235992,-0.16329044103622437
1789061758313033500,0.386033447265625,-0.002709943801164627,-0.19101205468177795,-0.20226845145225525
1789061758322993400,0.395993408203125,-0.011872275732457638,-0.20643267035484314,-0.2166004329919815
1789061758332954400,0.405954345703125,-0.039205629378557205,-0.22252562642097473,-0.19640222191810608
1789061758342914600,0.41591455078125,-0.06832648813724518,-0.23201780021190643,-0.15622782707214355
1789061758352875500,0.42587548828125,-0.09562335908412933,-0.23839206993579865,-0.11612381041049957
1789061758362835500,0.43583544921875,-0.11550142616033554,-0.24394994974136353,-0.09136416018009186
1789061758372796400,0.44579638671875,-0.12312258780002594,-0.2539181709289551,-0.0911167562007904
1789061758382756400,0.45575634765625,-0.12721988558769226,-0.26637041568756104,-0.10248053818941116
1789061758392717600,0.465717529296875,-0.13480642437934875,-0.28839290142059326,-0.10895947366952896
1789061758402677500,0.475677490234375,-0.15225467085838318,-0.3255709111690521,-0.10150850564241409
1789061758412638500,0.485638427734375,-0.16684187948703766,-0.3690880239009857,-0.08651890605688095
1789061758422598700,0.4955986328125,-0.17649289965629578,-0.39377546310424805,-0.08126671612262726
1789061758432559600,0.5055595703125,-0.1763315200805664,-0.38895806670188904,-0.10371050238609314
1789061758442519600,0.51551953125,-0.16038663685321808,-0.35626962780952454,-0.1386176198720932
1789061758452480500,0.52548046875,-0.13217151165008545,-0.28243082761764526,-0.17574287950992584
1789061758462440400,0.5354404296875,-0.10385200381278992,-0.19369852542877197,-0.19482991099357605
1789061758472401700,0.545401611328125,-0.08272061496973038,-0.12193300575017929,-0.18658556044101715
1789061758482361600,0.555361572265625,-0.06898985803127289,-0.0797632485628128,-0.16654673218727112
1789061758492322600,0.565322509765625,-0.06149252876639366,-0.07008851319551468,-0.15386049449443817
1789061758502282500,0.575282470703125,-0.05618168041110039,-0.07751436531543732,-0.1602703183889389
1789061758512243500,0.585243408203125,-0.053828511387109756,-0.08205904811620712,-0.18411625921726227
1789061758522204700,0.59520458984375,-0.053991228342056274,-0.08079607784748077,-0.21144622564315796
1789061758532164600,0.60516455078125,-0.05382717773318291,-0.07257170975208282,-0.22829577326774597
1789061758542125600,0.61512548828125,-0.04693812131881714,-0.05366125330328941,-0.23378966748714447
1789061758552085800,0.625085693359375,-0.03274187445640564,-0.0422767698764801,-0.22705639898777008
1789061758562046500,0.63504638671875,-0.019736826419830322,-0.043884627521038055,-0.22066470980644226
1789061758572006400,0.64500634765625,-0.005518741440027952,-0.05540360137820244,-0.22670023143291473
1789061758581966800,0.654966796875,0.011427211575210094,-0.07954470068216324,-0.24105338752269745
1789061758591926800,0.6649267578125,0.025849560275673866,-0.10361169278621674,-0.2569340765476227
1789061758601887700,0.6748876953125,0.03517063707113266,-0.12378394603729248,-0.25443729758262634
1789061758611848000,0.684847900390625,0.03180413320660591,-0.137099489569664,-0.22403916716575623
1789061758621808600,0.69480859375,0.02974521741271019,-0.1202063113451004,-0.17661698162555695
1789061758631768600,0.7047685546875,0.025378964841365814,-0.08563368767499924,-0.12518122792243958
1789061758641729800,0.714729736328125,0.01399369165301323,-0.057579319924116135,-0.08626772463321686
1789061758651689700,0.724689697265625,0.012057307176291943,-0.041869331151247025,-0.0725894570350647
1789061758661650700,0.734650634765625,0.021903270855545998,-0.0361817367374897,-0.07914357632398605
1789061758671611000,0.74461083984375,0.0352339893579483,-0.0309534203261137,-0.09576676040887833
1789061758681571800,0.75457177734375,0.04661529138684273,-0.009821794927120209,-0.11287875473499298
1789061758691531800,0.76453173828125,0.05072242021560669,-0.005191889591515064,-0.12102296948432922
1789061758701492700,0.77449267578125,0.04906248673796654,-0.007266863249242306,-0.1257326602935791
1789061758711452700,0.78445263671875,0.05237039923667908,-0.013894671574234962,-0.12676464021205902
1789061758721414000,0.794413818359375,0.062143661081790924,-0.016549618914723396,-0.12685520946979523
1789061758731373800,0.804373779296875,0.08056128770112991,-0.009204618632793427,-0.12883473932743073
1789061758741334800,0.814334716796875,0.10175524652004242,0.017924655228853226,-0.12452499568462372
1789061758751295000,0.824294921875,0.11894062906503677,0.04477038234472275,-0.10351931303739548
1789061758761255700,0.834255615234375,0.1312745064496994,0.0768144428730011,-0.07605583220720291
1789061758771215600,0.844215576171875,0.1426326185464859,0.10868635773658752,-0.06034264340996742
1789061758781176800,0.8541767578125,0.15282028913497925,0.13315461575984955,-0.06465285271406174
1789061758791136800,0.86413671875,0.16131684184074402,0.1343248039484024,-0.08356235921382904
1789061758801098000,0.874097900390625,0.17195911705493927,0.11793585866689682,-0.10294089466333389
1789061758811058000,0.884057861328125,0.18541686236858368,0.11592677235603333,-0.11201189458370209
1789061758821018600,0.8940185546875,0.19676940143108368,0.148775115609169,-0.0963902473449707
1789061758830978800,0.903978759765625,0.19830498099327087,0.20297230780124664,-0.05588223785161972
1789061758840939800,0.913939697265625,0.1758958101272583,0.23877766728401184,0.011534595862030983
1789061758850899700,0.923899658203125,0.1352969855070114,0.24005013704299927,0.09073381125926971
1789061758860861000,0.93386083984375,0.08299034833908081,0.20642077922821045,0.16130846738815308
1789061758870820900,0.94382080078125,0.04061146453022957,0.16375774145126343,0.2099100947380066
1789061758880781800,0.95378173828125,0.007468435447663069,0.11833842843770981,0.24731917679309845
1789061758890741800,0.96374169921875,-0.017999373376369476,0.0935894027352333,0.29401078820228577
1789061758900702700,0.97370263671875,-0.03730784356594086,0.1382831484079361,0.36724719405174255
1789061758910664000,0.983663818359375,-0.06482681632041931,0.24178744852542877,0.4677988290786743
1789061758920623900,0.993623779296875,-0.09555864334106445,0.36591053009033203,0.5872486233711243
1789061758930584600,1.00358447265625,-0.13532817363739014,0.4495774507522583,0.725563108921051
1789061758940544800,1.013544677734375,-0.21196326613426208,0.3789224922657013,0.8642444610595703
1789061758950505700,1.023505615234375,-0.304400771856308,0.17394647002220154,0.9538595676422119
1789061758960465700,1.033465576171875,-0.378487229347229,0.052794404327869415,0.9074869155883789
1789061758970427000,1.043427001953125,-0.3786502182483673,0.23540335893630981,0.7093623876571655
1789061758980386800,1.05338671875,-0.239716574549675,0.6918502449989319,0.3953062891960144
1789061758990347800,1.06334765625,0.0677938312292099,1.2316770553588867,-0.006193729117512703
1789061759000307700,1.0733076171875,0.4566531777381897,1.6033587455749512,-0.39553892612457275
1789061759010268700,1.0832685546875,0.7956586480140686,1.558781385421753,-0.6790262460708618
1789061759020228900,1.093228759765625,0.9779629707336426,1.265840768814087,-0.8422085046768188
1789061759030189800,1.10318994140625,0.9893413186073303,0.7909067273139954,-0.8645244240760803
1789061759040149800,1.113149658203125,0.8610374331474304,0.179058238863945,-0.7507984042167664
1789061759050110700,1.12311083984375,0.6383523941040039,-0.4469641149044037,-0.5816376209259033
1789061759060070700,1.133070556640625,0.39582765102386475,-0.9425585269927979,-0.4512365162372589
1789061759070032000,1.143031982421875,0.22385215759277344,-1.1999067068099976,-0.3767518997192383
1789061759079991800,1.15299169921875,0.11692250519990921,-1.2804052829742432,-0.3138296902179718
1789061759089952800,1.162952880859375,0.05367029458284378,-1.181186556816101,-0.24483279883861542
1789061759099913000,1.172912841796875,0.006169874221086502,-0.9535658359527588,-0.14754480123519897
1789061759109873700,1.182873779296875,-0.04443205147981644,-0.6389660835266113,-0.017688272520899773
1789061759119833600,1.19283349609375,-0.09533996134996414,-0.3187592029571533,0.1533108353614807
1789061759129794800,1.202794921875,-0.14552031457424164,-0.045452311635017395,0.34932562708854675
1789061759139754800,1.212754638671875,-0.17205283045768738,0.14929307997226715,0.5268089771270752
1789061759149715700,1.2227158203125,-0.1592603474855423,0.27413544058799744,0.6426011323928833
1789061759159676000,1.232676025390625,-0.11497407406568527,0.34856274724006653,0.6687415242195129
1789061759169636600,1.24263671875,-0.04568474739789963,0.37833425402641296,0.6087556481361389
1789061759179596500,1.252596435546875,0.054270584136247635,0.36127859354019165,0.4854050874710083
1789061759189557800,1.262557861328125,0.1868762969970703,0.30925053358078003,0.3194158673286438
1789061759199518700,1.272518798828125,0.34270185232162476,0.2060089260339737,0.13191114366054535
1789061759209479000,1.28247900390625,0.4933328926563263,0.05363989248871803,-0.05852803960442543
1789061759219439900,1.29243994140625,0.6062572598457336,-0.09729567170143127,-0.2310227006673813
1789061759229399800,1.30239990234375,0.6714866161346436,-0.18719519674777985,-0.36272934079170227
1789061759239360800,1.31236083984375,0.6790167093276978,-0.21435260772705078,-0.4169292151927948
1789061759249320700,1.32232080078125,0.6419779658317566,-0.1996447592973709,-0.3940289616584778
1789061759259282000,1.332281982421875,0.558393120765686,-0.18697291612625122,-0.3094591796398163
1789061759269241900,1.342241943359375,0.4550829827785492,-0.165618896484375,-0.19699177145957947
1789061759279202800,1.352202880859375,0.35860252380371094,-0.13924896717071533,-0.09986821562051773
1789061759289162800,1.362162841796875,0.29605525732040405,-0.10595466196537018,-0.056932199746370316
1789061759299123700,1.372123779296875,0.2572658061981201,-0.07810087502002716,-0.0743061974644661
1789061759309083600,1.382083740234375,0.230261892080307,-0.07764919847249985,-0.12410757690668106
1789061759319044900,1.392044921875,0.20703138411045074,-0.12970669567584991,-0.16183695197105408
1789061759329004800,1.4020048828125,0.1808125525712967,-0.22299963235855103,-0.18330149352550507
1789061759338965800,1.4119658203125,0.15002425014972687,-0.3118060231208801,-0.18715530633926392
1789061759348926000,1.421926025390625,0.12603449821472168,-0.34103208780288696,-0.1771058589220047
1789061759358886700,1.43188671875,0.12010367959737778,-0.3038787245750427,-0.16533778607845306
1789061759368846600,1.4418466796875,0.12304887175559998,-0.248463436961174,-0.1522936373949051
1789061759378807800,1.451807861328125,0.12745001912117004,-0.18870662152767181,-0.13072149455547333
1789061759388767700,1.461767822265625,0.1145496591925621,-0.14171141386032104,-0.08313080668449402
1789061759398729000,1.47172900390625,0.0969158187508583,-0.10681353509426117,-0.021427975967526436
1789061759408689000,1.48168896484375,0.07495725899934769,-0.07119882106781006,0.03233378753066063
1789061759418649600,1.491649658203125,0.058799583464860916,-0.03778364136815071,0.07625354826450348
1789061759428609800,1.50160986328125,0.051093995571136475,-0.033898890018463135,0.09971200674772263
1789061759438570800,1.51157080078125,0.052637264132499695,-0.03656386956572533,0.09746375679969788
1789061759448532000,1.521531982421875,0.057458918541669846,-0.02503957413136959,0.08710725605487823
1789061759458492000,1.531491943359375,0.05793141946196556,-0.0303010456264019,0.10312269628047943
1789061759468452600,1.54145263671875,0.0351848267018795,-0.07747894525527954,0.1588895469903946
1789061759478412800,1.551412841796875,-0.015230461955070496,-0.1578410118818283,0.24410581588745117
1789061759488373800,1.561373779296875,-0.08014341443777084,-0.23258556425571442,0.3377864956855774
1789061759498333700,1.571333740234375,-0.13368120789527893,-0.2647315263748169,0.41309070587158203
1789061759508295000,1.581294921875,-0.16640827059745789,-0.25109079480171204,0.47097423672676086
1789061759518254800,1.5912548828125,-0.18723367154598236,-0.251444935798645,0.5323250889778137
1789061759528215800,1.6012158203125,-0.20620097219944,-0.2999626696109772,0.5974247455596924
1789061759538175700,1.61117578125,-0.22925566136837006,-0.45340174436569214,0.6512911915779114
1789061759548136700,1.62113671875,-0.25908148288726807,-0.7458224296569824,0.6581951975822449
1789061759558097000,1.631096923828125,-0.2960889935493469,-1.0974757671356201,0.5755113959312439
1789061759568057900,1.641057861328125,-0.31799402832984924,-1.2618242502212524,0.3776070773601532
1789061759578018000,1.65101806640625,-0.27890893816947937,-1.0311626195907593,0.09420649707317352
1789061759587978800,1.660978759765625,-0.1437481790781021,-0.34799841046333313,-0.22839896380901337
1789061759597939000,1.67093896484375,0.09236154705286026,0.6910037398338318,-0.4859974980354309
1789061759607900000,1.68089990234375,0.3160633444786072,1.5324479341506958,-0.5662251710891724
1789061759617859800,1.69085986328125,0.4430931806564331,1.9342392683029175,-0.5154144167900085
1789061759627821000,1.700821044921875,0.45645055174827576,1.945577621459961,-0.423855185508728
1789061759637781800,1.71078173828125,0.35407358407974243,1.5580270290374756,-0.2802523374557495
1789061759647741700,1.72074169921875,0.20154263079166412,0.8573876619338989,-0.0879204273223877
1789061759657703000,1.730702880859375,0.05158773809671402,-0.019719215109944344,0.10418754816055298
1789061759667662800,1.740662841796875,-0.09812799096107483,-0.8578282594680786,0.1983340084552765
1789061759677624000,1.7506240234375,-0.23976238071918488,-1.5032013654708862,0.15275096893310547
1789061759687584000,1.760583984375,-0.34773489832878113,-1.8390300273895264,0.006826514378190041
1789061759697544700,1.770544677734375,-0.3940560519695282,-1.8356527090072632,-0.14829298853874207
1789061759707505000,1.7805048828125,-0.39493808150291443,-1.5549826622009277,-0.23765774071216583
1789061759717465900,1.7904658203125,-0.39622122049331665,-1.1190314292907715,-0.2245352864265442
1789061759727425800,1.80042578125,-0.4058179259300232,-0.6466769576072693,-0.13158589601516724
1789061759737387000,1.810386962890625,-0.4141317307949066,-0.23225055634975433,-0.006782693322747946
1789061759747347000,1.820346923828125,-0.4223504960536957,0.07770676910877228,0.09896717220544815
1789061759757308000,1.830307861328125,-0.42290443181991577,0.2958695590496063,0.16220740973949432
1789061759767267800,1.840267822265625,-0.41612508893013,0.45530447363853455,0.1828003078699112
1789061759777228800,1.850228759765625,-0.41049814224243164,0.5271092057228088,0.18658466637134552
1789061759787189000,1.86018896484375,-0.41531845927238464,0.5275717973709106,0.1752028465270996
1789061759797150000,1.87014990234375,-0.4235827326774597,0.5133447647094727,0.13731761276721954
1789061759807110000,1.88010986328125,-0.41617730259895325,0.4988097548484802,0.08857829868793488
1789061759817070800,1.89007080078125,-0.3712034523487091,0.4861155152320862,0.03462686762213707
1789061759827031800,1.90003173828125,-0.29099223017692566,0.4355623126029968,-0.023772262036800385
1789061759836991700,1.90999169921875,-0.20555029809474945,0.34945422410964966,-0.08437999337911606
1789061759846953000,1.919952880859375,-0.14414791762828827,0.2289821207523346,-0.12733997404575348
1789061759856913000,1.929912841796875,-0.11853818595409393,0.08584318310022354,-0.13937729597091675
1789061759866873900,1.939873779296875,-0.11329362541437149,-0.03421211615204811,-0.11768265813589096
1789061759876833800,1.949833740234375,-0.12318084388971329,-0.12142937630414963,-0.06897944211959839
1789061759886794800,1.959794677734375,-0.13966475427150726,-0.20129171013832092,-0.007659359369426966
1789061759896755000,1.9697548828125,-0.15288598835468292,-0.2542341351509094,0.032435838133096695
1789061759906716000,1.9797158203125,-0.16070716083049774,-0.2490212470293045,0.032321058213710785
1789061759916675800,1.98967578125,-0.1526084989309311,-0.22056365013122559,-0.006581819150596857
1789061759926637000,1.999636962890625,-0.134436696767807,-0.21387405693531036,-0.054099537432193756
1789061759936597000,2.009596923828125,-0.11574315279722214,-0.24828365445137024,-0.0871962159872055
1789061759946558000,2.019557861328125,-0.10040760785341263,-0.2769046425819397,-0.10263481736183167
1789061759956518000,2.029517822265625,-0.0853373110294342,-0.26990556716918945,-0.10748881846666336
1789061759966478800,2.039478759765625,-0.0707961916923523,-0.22786225378513336,-0.08828343451023102
1789061759976439000,2.04943896484375,-0.05997497960925102,-0.1743951141834259,-0.03882153704762459
1789061759986400000,2.05939990234375,-0.06082186475396156,-0.13474278151988983,0.02423226088285446
1789061759996360700,2.069360595703125,-0.06093771383166313,-0.07957913726568222,0.06755736470222473
1789061760006321000,2.07932080078125,-0.06226636469364166,-0.02896096184849739,0.07818283885717392
1789061760016281900,2.08928173828125,-0.050779588520526886,-0.008068815805017948,0.05914334952831268
1789061760026241800,2.09924169921875,-0.024486999958753586,-0.019691918045282364,0.028601953759789467
1789061760036203000,2.109203125,0.01333756186068058,-0.032357700169086456,0.0027025146409869194
1789061760046163000,2.119162841796875,0.046278201043605804,-0.013055373914539814,-0.0029913238249719143
1789061760056124000,2.1291240234375,0.06791692972183228,0.05508088693022728,0.019300183281302452
1789061760066083800,2.139083740234375,0.07530507445335388,0.16084113717079163,0.06947999447584152
1789061760076044800,2.149044921875,0.08004043996334076,0.2776676118373871,0.1267017275094986
1789061760086005000,2.1590048828125,0.0908195823431015,0.38380175828933716,0.16016967594623566
1789061760095966000,2.168966064453125,0.11367294192314148,0.48929211497306824,0.1499183028936386
1789061760105926000,2.17892578125,0.1331300139427185,0.5827792286872864,0.10791146755218506
1789061760115886800,2.188886962890625,0.1478828638792038,0.6493043899536133,0.05779288336634636
1789061760125846800,2.1988466796875,0.15209145843982697,0.6887617707252502,0.02325647883117199
1789061760135808000,2.20880810546875,0.14704585075378418,0.7159358859062195,0.012339673936367035
1789061760145768000,2.218767822265625,0.12406729906797409,0.7127328515052795,0.031407907605171204
1789061760155729000,2.22872900390625,0.07204171270132065,0.6692456603050232,0.09366138279438019
1789061760165689900,2.23868994140625,0.006106634624302387,0.5637773275375366,0.19116424024105072
1789061760175649800,2.24864990234375,-0.05656643211841583,0.3919186592102051,0.30270570516586304
1789061760185611000,2.258611083984375,-0.09674713760614395,0.1984434723854065,0.3963448405265808
1789061760195571000,2.268571044921875,-0.11423445492982864,-0.04899302124977112,0.4490569233894348
1789061760205532000,2.278531982421875,-0.11005355417728424,-0.28184038400650024,0.4066511392593384
1789061760215492000,2.2884921875,-0.02414616383612156,-0.27075374126434326,0.20662234723567963
1789061760225452800,2.298452880859375,0.1832064837217331,0.11715802550315857,-0.16289551556110382
1789061760235412700,2.308412841796875,0.48389366269111633,0.8451670408248901,-0.6684395670890808
1789061760245374000,2.3183740234375,0.8553601503372192,1.6011916399002075,-1.1554731130599976
1789061760255334000,2.328333984375,1.137413501739502,1.9046361446380615,-1.4667521715164185
1789061760265294800,2.338294921875,1.2786684036254883,1.851932406425476,-1.6250523328781128
1789061760275255000,2.348255126953125,1.2336978912353516,1.431012749671936,-1.5952441692352295
1789061760285215700,2.3582158203125,1.0159506797790527,0.6991851329803467,-1.3245525360107422
1789061760295175700,2.36817578125,0.7171053290367126,-0.19949714839458466,-0.8791695237159729
1789061760305137000,2.378136962890625,0.42224228382110596,-1.0384474992752075,-0.3813017010688782
1789061760315097900,2.388097900390625,0.16644057631492615,-1.5755635499954224,0.049042124301195145
1789061760325058000,2.39805810546875,0.037421077489852905,-1.6925036907196045,0.3086763620376587
1789061760335018800,2.408018798828125,0.01911717653274536,-1.4471850395202637,0.4067220091819763
1789061760344978700,2.417978759765625,0.04584599286317825,-0.9618513584136963,0.39723289012908936
1789061760354940000,2.42793994140625,0.08271966129541397,-0.37021103501319885,0.3521476984024048
1789061760364899800,2.43789990234375,0.12084094434976578,0.14971816539764404,0.3374515771865845
1789061760374861000,2.447861083984375,0.14315788447856903,0.480704665184021,0.3733433783054352
1789061760384821000,2.457821044921875,0.15385819971561432,0.6372479796409607,0.4327867329120636
1789061760394782000,2.467781982421875,0.15823835134506226,0.696647584438324,0.46980559825897217
1789061760404742000,2.477741943359375,0.17788182199001312,0.709130585193634,0.4638281464576721
1789061760414702800,2.487702880859375,0.2071382850408554,0.6479113698005676,0.45050179958343506
1789061760424662800,2.497662841796875,0.2282070815563202,0.48733794689178467,0.4346354901790619
1789061760434624000,2.5076240234375,0.24826733767986298,0.23109309375286102,0.3993293046951294
1789061760444585000,2.5175849609375,0.2788947522640228,-0.0761328861117363,0.3195076882839203
1789061760454545000,2.527544921875,0.31628477573394775,-0.3559345006942749,0.20752482116222382
1789061760464505900,2.537505859375,0.3418399393558502,-0.5361117720603943,0.09734291583299637
1789061760474465800,2.5474658203125,0.34455710649490356,-0.6030965447425842,0.03547303006052971
1789061760484427000,2.557427001953125,0.32835203409194946,-0.5760023593902588,0.030252967029809952
1789061760494387000,2.567386962890625,0.2766738831996918,-0.49170348048210144,0.06953081488609314
1789061760504348000,2.577347900390625,0.1780192106962204,-0.36557912826538086,0.12587638199329376
1789061760514308000,2.58730810546875,0.062401339411735535,-0.22610901296138763,0.17630863189697266
1789061760524268800,2.597268798828125,-0.040307726711034775,-0.09145744889974594,0.20370934903621674
1789061760534228700,2.607228759765625,-0.11020857840776443,0.015002088621258736,0.20241405069828033
1789061760544190000,2.61718994140625,-0.15409107506275177,0.0692853033542633,0.1818792223930359
1789061760554150000,2.62714990234375,-0.18237678706645966,0.07944409549236298,0.16155163943767548
1789061760564111000,2.637111083984375,-0.20249083638191223,0.051213253289461136,0.15186892449855804
1789061760574071000,2.647071044921875,-0.21313337981700897,0.0031935113947838545,0.1413160115480423
1789061760584032000,2.657031982421875,-0.22030474245548248,-0.046621181070804596,0.11729428917169571
1789061760593993000,2.666992919921875,-0.23260901868343353,-0.08997790515422821,0.08461684733629227
1789061760603953200,2.676953125,-0.25072968006134033,-0.12860704958438873,0.06459254026412964
1789061760613914000,2.6869140625,-0.2655859589576721,-0.1512477844953537,0.062229007482528687
1789061760623874000,2.6968740234375,-0.2682158350944519,-0.15477673709392548,0.08038803935050964
1789061760633835000,2.7068349609375,-0.25694045424461365,-0.1595907360315323,0.11190110445022583
1789061760643795000,2.716794921875,-0.24524223804473877,-0.1777375191450119,0.14754033088684082
1789061760653756000,2.726755859375,-0.22917620837688446,-0.20810851454734802,0.16276904940605164
1789061760663716000,2.736716064453125,-0.2196468859910965,-0.2645220160484314,0.1605285406112671
1789061760673677000,2.746677001953125,-0.2220601588487625,-0.34102576971054077,0.144096240401268
1789061760683637000,2.756636962890625,-0.2325117439031601,-0.36529383063316345,0.13213038444519043
1789061760693598000,2.766597900390625,-0.24839888513088226,-0.3297310769557953,0.16005836427211761
1789061760703558000,2.776557861328125,-0.2683749794960022,-0.2455296367406845,0.233907550573349
1789061760713519000,2.78651904296875,-0.28790155053138733,-0.1322595477104187,0.3373498022556305
1789061760723480000,2.79647998046875,-0.316056489944458,0.0030732518061995506,0.4522135555744171
1789061760733440000,2.80643994140625,-0.35836803913116455,0.19336262345314026,0.5582566857337952
1789061760743401000,2.81640087890625,-0.39523017406463623,0.40591534972190857,0.6509698629379272
1789061760753361000,2.82636083984375,-0.41089412569999695,0.5862925052642822,0.7177540063858032
1789061760763322000,2.836322021484375,-0.4053499400615692,0.6739121079444885,0.7290266156196594
1789061760773282000,2.846281982421875,-0.397684246301651,0.623437762260437,0.6823890209197998
1789061760783243000,2.856242919921875,-0.3898358941078186,0.4337054193019867,0.5973870158195496
1789061760793203200,2.866203125,-0.38193222880363464,0.09482022374868393,0.5106350183486938
1789061760803164000,2.876163818359375,-0.379586786031723,-0.3926181495189667,0.4427552819252014
1789061760813123800,2.886123779296875,-0.39732345938682556,-0.9409331679344177,0.3553486168384552
1789061760823085000,2.8960849609375,-0.46784529089927673,-1.3913620710372925,0.18508528172969818
1789061760833045000,2.906044921875,-0.5504389405250549,-1.5767974853515625,-0.08499976247549057
1789061760843006200,2.916006103515625,-0.5784665942192078,-1.3014569282531738,-0.4389740526676178
1789061760852967000,2.925966796875,-0.48295891284942627,-0.46607500314712524,-0.8460890650749207
1789061760862926800,2.9359267578125,-0.2666729688644409,0.6728101372718811,-1.1084527969360352
1789061760872888000,2.94588818359375,-0.01578323170542717,1.6142451763153076,-1.0491865873336792
1789061760882848000,2.955847900390625,0.16838553547859192,2.107905626296997,-0.7183991074562073
1789061760892809000,2.96580908203125,0.230379119515419,2.1097371578216553,-0.24820002913475037
1789061760902769200,2.97576904296875,0.1291896551847458,1.5902992486953735,0.22486712038516998
1789061760912729900,2.985729736328125,-0.07887725532054901,0.6080658435821533,0.590927004814148
1789061760922689800,2.995689697265625,-0.29039910435676575,-0.38406896591186523,0.7163352966308594
1789061760932651000,3.005651123046875,-0.42572686076164246,-1.0373457670211792,0.6029156446456909
1789061760942611000,3.01561083984375,-0.4694546163082123,-1.3975685834884644,0.36804744601249695
1789061760952572200,3.025572265625,-0.4470760226249695,-1.4908623695373535,0.08407731354236603
1789061760962532000,3.035531982421875,-0.41321420669555664,-1.3820346593856812,-0.17677797377109528
1789061760972493000,3.0454931640625,-0.37927138805389404,-1.1333332061767578,-0.3493776321411133
1789061760982454000,3.0554541015625,-0.3583914041519165,-0.817130982875824,-0.39602476358413696
1789061760992414000,3.0654140625,-0.3501129448413849,-0.5207433104515076,-0.31303098797798157
1789061761002375200,3.075375244140625,-0.35804328322410583,-0.29196876287460327,-0.14453516900539398
1789061761012335000,3.085335205078125,-0.36975547671318054,-0.1363517940044403,0.035692956298589706
1789061761022296000,3.095296142578125,-0.3905414342880249,-0.011250062845647335,0.17382873594760895
1789061761032256000,3.105256103515625,-0.3977191150188446,0.11233872920274734,0.24417181313037872
1789061761042217000,3.115217041015625,-0.3769746720790863,0.21214734017848969,0.2505955994129181
1789061761052177000,3.125177001953125,-0.3417147099971771,0.26461467146873474,0.20375396311283112
1789061761062138000,3.13513818359375,-0.2950683832168579,0.28669625520706177,0.10897047072649002
1789061761072098000,3.14509814453125,-0.24734187126159668,0.2974972128868103,-0.0017087855376303196
1789061761082059000,3.15505908203125,-0.1961045265197754,0.29546603560447693,-0.08720051497220993
1789061761092020000,3.16502001953125,-0.15133784711360931,0.2931716740131378,-0.13965283334255219
1789061761101980000,3.17497998046875,-0.1146397590637207,0.3097144365310669,-0.1491243690252304
1789061761111941000,3.184941162109375,-0.09744426608085632,0.324956476688385,-0.10337139666080475
1789061761121901000,3.194901123046875,-0.0991944968700409,0.3135802447795868,-0.018022947013378143
1789061761131862000,3.204862060546875,-0.11254434287548065,0.28169873356819153,0.07331442832946777
1789061761141822200,3.214822265625,-0.1289680451154709,0.22462104260921478,0.13516049087047577
1789061761151783000,3.224782958984375,-0.14016367495059967,0.12270688265562057,0.14471270143985748
1789061761161742800,3.234742919921875,-0.1348932683467865,-0.01256172638386488,0.10541591048240662
1789061761171704000,3.2447041015625,-0.11668314784765244,-0.14346875250339508,0.036373771727085114
1789061761181664000,3.2546640625,-0.08592443913221359,-0.2449232041835785,-0.03958278149366379
1789061761191625200,3.264625244140625,-0.05215426906943321,-0.2988830804824829,-0.10895641148090363
1789061761201585200,3.274585205078125,-0.003420017659664154,-0.2909966707229614,-0.16706418991088867
1789061761211545900,3.2845458984375,0.045649245381355286,-0.254590779542923,-0.19577883183956146
1789061761221507000,3.294507080078125,0.0780537873506546,-0.19298280775547028,-0.18901599943637848
1789061761231467000,3.304467041015625,0.08176835626363754,-0.10157918184995651,-0.16421733796596527
1789061761241428200,3.31442822265625,0.06147214025259018,0.0021669180132448673,-0.1328389197587967
1789061761251388200,3.32438818359375,0.027928058058023453,0.0961361825466156,-0.09186102449893951
1789061761261348900,3.334348876953125,-0.004567832686007023,0.14608164131641388,-0.0493529811501503
1789061761271309000,3.34430908203125,-0.03460456803441048,0.155740886926651,-0.011637049727141857
1789061761281270000,3.35427001953125,-0.06222554296255112,0.16145682334899902,0.009668238461017609
1789061761291230000,3.36422998046875,-0.06717156618833542,0.1855693757534027,0.00521105108782649
1789061761301191200,3.374191162109375,-0.04771583899855614,0.19525715708732605,-0.018531829118728638
1789061761311151000,3.384151123046875,-0.02370821312069893,0.18611998856067657,-0.04795900359749794
1789061761321111800,3.39411181640625,-0.008723405189812183,0.17841705679893494,-0.0626295655965805
1789061761331073000,3.404072998046875,0.007489013951271772,0.19445455074310303,-0.05718136951327324
1789061761341033000,3.414032958984375,0.021466614678502083,0.23370635509490967,-0.03641270846128464
1789061761350994200,3.423994140625,0.037878502160310745,0.2883339524269104,-0.007428206503391266
1789061761360954000,3.4339541015625,0.059120673686265945,0.371261864900589,0.007345413323491812
1789061761370914800,3.443914794921875,0.09185242652893066,0.47018423676490784,-0.0070459311828017235
1789061761380875000,3.453875,0.11731331050395966,0.5980370044708252,-0.035672515630722046
1789061761390836000,3.4638359375,0.13242492079734802,0.7094992399215698,-0.04332808405160904
1789061761400796000,3.4737958984375,0.12964564561843872,0.763446569442749,-0.01721632108092308
1789061761410757000,3.483757080078125,0.10291227698326111,0.7555249333381653,0.03794325888156891
1789061761420717000,3.493717041015625,0.05411304160952568,0.67180335521698,0.11133784800767899
1789061761430678000,3.503677978515625,-0.0036240159533917904,0.5239974856376648,0.19063882529735565
1789061761440638000,3.513637939453125,-0.04507345333695412,0.37346601486206055,0.28037455677986145
1789061761450599000,3.523598876953125,-0.06474780291318893,0.23560598492622375,0.38808631896972656
1789061761460560100,3.53356005859375,-0.07942022383213043,0.06528299301862717,0.5030099749565125
1789061761470520000,3.54352001953125,-0.10812914371490479,-0.14095401763916016,0.5912215709686279
1789061761480481000,3.55348095703125,-0.14133769273757935,-0.28158038854599,0.5547900199890137
1789061761490441000,3.56344091796875,-0.10152392089366913,-0.1911841481924057,0.3416081964969635
1789061761500402000,3.57340185546875,0.027276141569018364,0.2610645592212677,-0.03299416974186897
1789061761510361900,3.58336181640625,0.25256019830703735,1.032650351524353,-0.49868226051330566
1789061761520323000,3.593322998046875,0.5195900201797485,1.697043776512146,-0.8782863020896912
1789061761530283000,3.603282958984375,0.7181304693222046,1.9214913845062256,-1.0649493932724
1789061761540244200,3.613244140625,0.811501681804657,1.7148948907852173,-1.0947870016098022
1789061761550204200,3.6232041015625,0.7706674337387085,1.0731251239776611,-0.9370468258857727
1789061761560164900,3.633164794921875,0.6490858793258667,0.10335658490657806,-0.6153194308280945
1789061761570126000,3.6431259765625,0.48099756240844727,-1.0186107158660889,-0.17689339816570282
1789061761580085500,3.65308544921875,0.30782896280288696,-1.811041235923767,0.18283414840698242
1789061761590046500,3.66304638671875,0.16769474744796753,-2.146627902984619,0.3919089436531067
1789061761600006700,3.673006591796875,0.07202094048261642,-2.0039913654327393,0.44438308477401733
1789061761609967400,3.68296728515625,0.017139900475740433,-1.494229793548584,0.3599188029766083
1789061761619927300,3.69292724609375,-0.006666362751275301,-0.8090121746063232,0.2153022438287735
1789061761629888500,3.702888427734375,-0.019069302827119827,-0.10509426891803741,0.09747139364480972
1789061761639848400,3.712848388671875,-0.04130350053310394,0.5110610127449036,0.06558696180582047
1789061761649809700,3.7228095703125,-0.0879918560385704,0.8471147418022156,0.1314065158367157
1789061761659769600,3.73276953125,-0.1341007649898529,0.9961087107658386,0.2016870677471161
1789061761669730300,3.742730224609375,-0.176328644156456,1.0123542547225952,0.22400328516960144
1789061761679691500,3.75269140625,-0.1755475401878357,0.9227255582809448,0.19346295297145844
1789061761689651500,3.7626513671875,-0.09689608961343765,0.7434676289558411,0.1355912685394287
1789061761699612700,3.77261279296875,0.04478168115019798,0.4677439332008362,0.06470324099063873
1789061761709572600,3.782572509765625,0.2143046259880066,0.14610178768634796,-0.014150803908705711
1789061761719533600,3.792533447265625,0.357277512550354,-0.17003220319747925,-0.06529468297958374
1789061761729493500,3.802493408203125,0.4441877007484436,-0.4541693329811096,-0.06347207725048065
1789061761739454500,3.812454345703125,0.45586511492729187,-0.6742154359817505,-0.022381367161870003
1789061761749414400,3.822414306640625,0.4065723419189453,-0.8040653467178345,0.01588047854602337
1789061761759375600,3.832375732421875,0.329372376203537,-0.8649188280105591,0.03978181630373001
1789061761769335600,3.84233544921875,0.2602795362472534,-0.8657049536705017,0.04048488289117813
1789061761779296500,3.852296630859375,0.2101585865020752,-0.7978236675262451,0.016587544232606888
1789061761789257500,3.862257568359375,0.18534618616104126,-0.6509938836097717,-0.019282499328255653
1789061761799217400,3.872217529296875,0.17510740458965302,-0.4535886347293854,-0.03185182064771652
1789061761809178600,3.8821787109375,0.16389332711696625,-0.2603161334991455,-0.0019080894999206066
1789061761819138600,3.892138671875,0.14970746636390686,-0.10763019323348999,0.041707564145326614
1789061761829099500,3.902099609375,0.13411791622638702,-0.01319621130824089,0.06410621106624603
1789061761839059700,3.912059814453125,0.12105777859687805,0.00991683080792427,0.051431164145469666
1789061761849020400,3.9220205078125,0.11952532827854156,-0.028145121410489082,0.01622343808412552
1789061761858980400,3.93198046875,0.13067786395549774,-0.09159892797470093,-0.02341371960937977
1789061761868941600,3.941941650390625,0.1399393081665039,-0.14763933420181274,-0.042100850492715836
1789061761878901500,3.951901611328125,0.12356725335121155,-0.22039316594600677,-0.02703161910176277
1789061761888862700,3.96186279296875,0.08771280944347382,-0.29583489894866943,0.011993806809186935
1789061761898823400,3.971823486328125,0.04970870167016983,-0.35991692543029785,0.049478862434625626
1789061761908783400,3.981783447265625,0.01937248557806015,-0.40342897176742554,0.06472154706716537
1789061761918744600,3.99174462890625,0.0038148316089063883,-0.4299119710922241,0.05953610688447952
1789061761928704500,4.00170458984375,-0.003813339164480567,-0.43663281202316284,0.05672944337129593
1789061761938665700,4.011665771484375,-0.0015411300119012594,-0.41667428612709045,0.06349281221628189
1789061761948625700,4.021625732421875,-0.010064108297228813,-0.3739759027957916,0.084296815097332
1789061761958586400,4.03158642578125,-0.03573884442448616,-0.3069491982460022,0.12151715159416199
1789061761968546600,4.041546630859375,-0.0646820068359375,-0.22262752056121826,0.15965652465820312
1789061761978507500,4.051507568359375,-0.08735615760087967,-0.12090515345335007,0.17418992519378662
1789061761988467500,4.061467529296875,-0.0946158617734909,-0.03710152953863144,0.1581178456544876
1789061761998428700,4.0714287109375,-0.0881853923201561,0.017563046887516975,0.11520658433437347
1789061762008389400,4.081389404296875,-0.07636801898479462,0.050214871764183044,0.05358315631747246
1789061762018349300,4.091349365234375,-0.07459008693695068,0.056770507246255875,-0.0031118132174015045
1789061762028310500,4.101310546875,-0.07556773722171783,0.04963938146829605,-0.04015064612030983
1789061762038270500,4.1112705078125,-0.08415589481592178,0.041963350027799606,-0.03039388917386532
1789061762048231700,4.121231689453125,-0.09292876720428467,0.044196441769599915,0.036334626376628876
1789061762058191600,4.131191650390625,-0.0963360145688057,0.01968097873032093,0.14798498153686523
1789061762068152300,4.14115234375,-0.10083310306072235,-0.05323644354939461,0.2614249289035797
1789061762078112500,4.151112548828125,-0.1057511568069458,-0.2236100435256958,0.33717161417007446
1789061762088073500,4.161073486328125,-0.13190074265003204,-0.5444749593734741,0.3461669385433197
1789061762098034700,4.17103466796875,-0.1744343489408493,-0.9882513284683228,0.24956291913986206
1789061762107994600,4.18099462890625,-0.2369547039270401,-1.4576146602630615,0.03610021248459816
1789061762117955300,4.190955322265625,-0.294023334980011,-1.747019648551941,-0.26445668935775757
1789061762127915500,4.20091552734375,-0.3156401216983795,-1.6306407451629639,-0.6039867997169495
1789061762137876500,4.21087646484375,-0.2212800532579422,-0.9712470769882202,-0.9964813590049744
1789061762147836400,4.22083642578125,0.027062764391303062,0.17466649413108826,-1.3498461246490479
1789061762157797600,4.230797607421875,0.41584858298301697,1.4292744398117065,-1.4990882873535156
1789061762167757600,4.240757568359375,0.7106030583381653,2.1885123252868652,-1.3284350633621216
1789061762177718500,4.250718505859375,0.8060779571533203,2.387756824493408,-0.8861836194992065
1789061762187678500,4.260678466796875,0.6713025569915771,1.9500683546066284,-0.30084845423698425
1789061762197639400,4.270639404296875,0.3683200478553772,0.9591497182846069,0.2686038017272949
1789061762207600600,4.2806005859375,0.0035904916003346443,-0.24788272380828857,0.6857158541679382
1789061762217560600,4.290560546875,-0.26023370027542114,-1.0122370719909668,0.7460319399833679
1789061762227521500,4.300521484375,-0.3825156092643738,-1.3254456520080566,0.4621618688106537
1789061762237481500,4.3104814453125,-0.3982114791870117,-1.360339641571045,0.017979871481657028
1789061762247442400,4.3204423828125,-0.3288872539997101,-1.20315682888031,-0.414134681224823
1789061762257402400,4.33040234375,-0.23398202657699585,-0.8879640698432922,-0.7273660898208618
1789061762267363600,4.340363525390625,-0.14438161253929138,-0.4529719650745392,-0.8502293229103088
1789061762277323500,4.350323486328125,-0.0845574215054512,-0.044705115258693695,-0.7623814940452576
1789061762287284700,4.36028466796875,-0.06359940767288208,0.2635427415370941,-0.5201365947723389
1789061762297244700,4.37024462890625,-0.07899700850248337,0.4569348394870758,-0.2109936624765396
1789061762307205400,4.380205322265625,-0.12637203931808472,0.5379260182380676,0.08552874624729156
1789061762317166600,4.39016650390625,-0.20011258125305176,0.5255202054977417,0.29471099376678467
1789061762327126500,4.40012646484375,-0.2928573489189148,0.45931294560432434,0.3810589909553528
1789061762337087700,4.410087646484375,-0.3818790912628174,0.3486681878566742,0.3583821654319763
1789061762347047700,4.420047607421875,-0.42298421263694763,0.20286904275417328,0.2599824070930481
1789061762357008400,4.43000830078125,-0.3991079032421112,0.05047443509101868,0.12425866723060608
1789061762366968600,4.439968505859375,-0.319556325674057,-0.0687890276312828,-0.006814613938331604
1789061762376929500,4.449929443359375,-0.22246573865413666,-0.13653771579265594,-0.09564728289842606
1789061762386889500,4.459889404296875,-0.11850366741418839,-0.12953318655490875,-0.1222400814294815
1789061762396850700,4.4698505859375,-0.02708161436021328,-0.04820557311177254,-0.09597013145685196
1789061762406811400,4.479811279296875,0.045486267656087875,0.09892445057630539,-0.02948596701025963
1789061762416771300,4.489771240234375,0.08803985267877579,0.2682577967643738,0.060545388609170914
1789061762426732500,4.499732666015625,0.10088784247636795,0.4167231619358063,0.15445592999458313
1789061762436692500,4.5096923828125,0.09836369752883911,0.5216453075408936,0.23338057100772858
1789061762446653700,4.51965380859375,0.09333211928606033,0.5621074438095093,0.2768349051475525
1789061762456613600,4.529613525390625,0.09718997776508331,0.529849112033844,0.28374767303466797
1789061762466574300,4.53957421875,0.11838767677545547,0.4262721538543701,0.26089683175086975
1789061762476534500,4.549534423828125,0.14861002564430237,0.2877688705921173,0.22743955254554749
1789061762486495500,4.55949560546875,0.18389464914798737,0.15347741544246674,0.19514642655849457
1789061762496455400,4.569455322265625,0.20397542417049408,0.04491366446018219,0.17068396508693695
1789061762506416600,4.579416748046875,0.1992928683757782,-0.033613331615924835,0.14859549701213837
1789061762516377300,4.58937744140625,0.17788532376289368,-0.09039724618196487,0.13839106261730194
1789061762526337500,4.599337646484375,0.14929772913455963,-0.1392846405506134,0.142719566822052
1789061762536298500,4.609298583984375,0.11750119179487228,-0.165202796459198,0.15347686409950256
1789061762546258400,4.619258544921875,0.09008786082267761,-0.1419212818145752,0.16490411758422852
1789061762556219600,4.6292197265625,0.06401125341653824,-0.08874328434467316,0.1809842884540558
1789061762566179600,4.6391796875,0.04173953831195831,-0.024207789450883865,0.20828565955162048
1789061762576140300,4.649140380859375,0.018454186618328094,0.04115310683846474,0.24929489195346832
1789061762586100700,4.659100830078125,0.0011951089836657047,0.08604471385478973,0.2859506905078888
1789061762596062000,4.66906201171875,-0.00841703824698925,0.13079407811164856,0.2922315001487732
1789061762606023000,4.67902294921875,-0.0018465653993189335,0.19212606549263,0.2736028730869293
1789061762615983000,4.688983154296875,0.01731780730187893,0.2594428062438965,0.2446332424879074
1789061762625943800,4.69894384765625,0.049587350338697433,0.2985452711582184,0.2178935706615448
1789061762635903700,4.70890380859375,0.08625534921884537,0.3021008372306824,0.1973278522491455
1789061762645865000,4.718864990234375,0.11715814471244812,0.2845701277256012,0.16988958418369293
1789061762655825000,4.728824951171875,0.14115536212921143,0.2699264585971832,0.13999293744564056
1789061762665785900,4.738785888671875,0.16261282563209534,0.2475622147321701,0.1147596463561058
1789061762675746000,4.74874609375,0.17573316395282745,0.21498802304267883,0.08788888156414032
1789061762685706800,4.758706787109375,0.1888354867696762,0.21865056455135345,0.05588260665535927
1789061762695668000,4.76866796875,0.1933673769235611,0.267936110496521,0.03845781087875366
1789061762705628000,4.7786279296875,0.19110964238643646,0.33347952365875244,0.05653359368443489
1789061762715588900,4.7885888671875,0.1780521720647812,0.3743920624256134,0.10247312486171722
1789061762725549000,4.798549072265625,0.14928749203681946,0.3629691004753113,0.13992939889431
1789061762735509800,4.808509765625,0.11273427307605743,0.3096480965614319,0.14631618559360504
1789061762745469700,4.8184697265625,0.08100526034832001,0.24479685723781586,0.12702257931232452
1789061762755431000,4.828430908203125,0.048509638756513596,0.15801163017749786,0.1261381357908249
1789061762765390800,4.838390869140625,-0.008102060295641422,0.020225169137120247,0.18315139412879944
1789061762775352000,4.84835205078125,-0.12121184170246124,-0.18404006958007812,0.3003491461277008
1789061762785312800,4.858312744140625,-0.31890517473220825,-0.547412633895874,0.4613799750804901
1789061762795272700,4.868272705078125,-0.5389478206634521,-0.8923580646514893,0.5744847059249878
1789061762805234000,4.87823388671875,-0.6716368198394775,-0.8613831996917725,0.5415546298027039
1789061762815193900,4.88819384765625,-0.5672957897186279,-0.2445652186870575,0.2698306441307068
1789061762825154800,4.89815478515625,-0.21179494261741638,0.7576471567153931,-0.22180582582950592
1789061762835115000,4.908114990234375,0.32051023840904236,1.8551024198532104,-0.8107021450996399
1789061762845076000,4.918075927734375,0.8057908415794373,2.4211456775665283,-1.2851934432983398
1789061762855036000,4.928035888671875,1.1093711853027344,2.4718704223632812,-1.5519518852233887
1789061762864996900,4.937996826171875,1.1547067165374756,2.038062810897827,-1.5725734233856201
1789061762874956800,4.947956787109375,0.964045524597168,1.2045893669128418,-1.2963730096817017
1789061762884918000,4.95791796875,0.6436831951141357,0.19703982770442963,-0.8017176985740662
1789061762894879000,4.96787890625,0.2764796018600464,-0.7868258953094482,-0.2411009818315506
1789061762904839000,4.9778388671875,-0.01871580444276333,-1.4170817136764526,0.24604570865631104
1789061762914799900,4.9877998046875,-0.18663716316223145,-1.4757617712020874,0.5363151431083679
1789061762924759800,4.997759765625,-0.2613106369972229,-1.074583649635315,0.5857352614402771
1789061762934721000,5.007720947265625,-0.30703869462013245,-0.4428147077560425,0.4375884234905243
1789061762944681000,5.017680908203125,-0.3599361777305603,0.13649757206439972,0.21827740967273712
1789061762954642000,5.027641845703125,-0.43069157004356384,0.5392106771469116,0.06301725655794144
1789061762964602000,5.03760205078125,-0.505482017993927,0.731675922870636,0.043836407363414764
1789061762974562800,5.047562744140625,-0.5736602544784546,0.7484192252159119,0.09767647087574005
1789061762984524000,5.05752392578125,-0.6260579228401184,0.6633877754211426,0.15981873869895935
1789061762994484000,5.06748388671875,-0.65582275390625,0.44745442271232605,0.20260055363178253
1789061763004445000,5.07744482421875,-0.6494745016098022,0.16047805547714233,0.20822346210479736
1789061763014405000,5.087405029296875,-0.6188007593154907,-0.15465831756591797,0.20095010101795197
1789061763024365800,5.09736572265625,-0.5814774036407471,-0.48858165740966797,0.21557965874671936
1789061763034325800,5.10732568359375,-0.5360718369483948,-0.778704822063446,0.25405246019363403
1789061763044287000,5.117286865234375,-0.49474698305130005,-1.0048800706863403,0.2946881055831909
1789061763054247000,5.127246826171875,-0.47437992691993713,-1.1070069074630737,0.30608242750167847
1789061763064208000,5.137207763671875,-0.47399193048477173,-1.0619218349456787,0.2736642360687256
1789061763074168800,5.1471689453125,-0.46988773345947266,-0.9503823518753052,0.21461902558803558
1789061763084128800,5.157128662109375,-0.47202393412590027,-0.7561217546463013,0.14182190597057343
1789061763094090000,5.167090087890625,-0.497036874294281,-0.5001312494277954,0.06482112407684326
1789061763104050000,5.1770498046875,-0.5587419867515564,-0.22817771136760712,0.014855774119496346
1789061763114011000,5.187010986328125,-0.6389747858047485,0.0009087428916245699,0.010356895625591278
1789061763123971000,5.19697119140625,-0.7164315581321716,0.13252881169319153,0.051352355629205704
1789061763133931800,5.206931884765625,-0.779323160648346,0.18408069014549255,0.10346375405788422
1789061763143891700,5.2168916015625,-0.8416194915771484,0.15198253095149994,0.13612431287765503
1789061763153853000,5.22685302734375,-0.9201385378837585,0.07928035408258438,0.13573601841926575
1789061763163814000,5.23681396484375,-1.024484634399414,0.01564706303179264,0.10963322967290878
1789061763173774000,5.246774169921875,-1.1350699663162231,-0.05987805500626564,0.0696469321846962
1789061763183734800,5.25673486328125,-1.2405511140823364,-0.12831099331378937,0.020925942808389664
1789061763193694700,5.26669482421875,-1.3196296691894531,-0.19527563452720642,-0.028578758239746094
1789061763203656000,5.276656005859375,-1.3794926404953003,-0.2582892179489136,-0.07019227743148804
1789061763213615900,5.286615966796875,-1.4302377700805664,-0.2981652617454529,-0.10790237784385681
1789061763223576800,5.296576904296875,-1.485399603843689,-0.32934537529945374,-0.1351757049560547
1789061763233537000,5.306537109375,-1.5354337692260742,-0.3514195382595062,-0.15946213901042938
1789061763243497700,5.316497802734375,-1.5741205215454102,-0.3615642189979553,-0.18200239539146423
1789061763253459000,5.326458984375,-1.5967241525650024,-0.33723410964012146,-0.1960148811340332
1789061763263419000,5.3364189453125,-1.617335557937622,-0.32480859756469727,-0.17923954129219055
1789061763273379800,5.3463798828125,-1.6520698070526123,-0.3454020321369171,-0.13047653436660767
1789061763283340000,5.356340087890625,-1.7081483602523804,-0.39686837792396545,-0.06374204903841019
1789061763293301000,5.366301025390625,-1.7854641675949097,-0.4663366675376892,0.012609448283910751
1789061763303261000,5.376260986328125,-1.8725831508636475,-0.5540570020675659,0.08150271326303482
1789061763313222000,5.386221923828125,-1.9543664455413818,-0.6540879607200623,0.12580253183841705
1789061763323181800,5.396181884765625,-2.025906562805176,-0.7379575967788696,0.13213300704956055
1789061763333143000,5.40614306640625,-2.0881588459014893,-0.8009424209594727,0.10976139456033707
1789061763343104000,5.41610400390625,-2.129302978515625,-0.7958801984786987,0.08009924739599228
1789061763353064000,5.42606396484375,-2.160295009613037,-0.7449264526367188,0.0887364074587822
1789061763363025000,5.43602490234375,-2.187398672103882,-0.6663962602615356,0.1567222774028778
1789061763372984800,5.44598486328125,-2.2229344844818115,-0.5910794138908386,0.2754792869091034
1789061763382946000,5.455946044921875,-2.2571310997009277,-0.5091179609298706,0.4030441641807556
1789061763392906000,5.465906005859375,-2.2952723503112793,-0.43692338466644287,0.5129684805870056
1789061763402867000,5.475866943359375,-2.3220126628875732,-0.3763895034790039,0.5737738013267517
1789061763412827100,5.4858271484375,-2.353031873703003,-0.3495278060436249,0.5895458459854126
1789061763422787800,5.495787841796875,-2.3910539150238037,-0.375424325466156,0.5857935547828674
1789061763432748800,5.505748779296875,-2.432358503341675,-0.43370068073272705,0.5830838084220886
1789061763442709000,5.515708984375,-2.4772562980651855,-0.5124698281288147,0.5882742404937744
1789061763452670000,5.525669921875,-2.518048048019409,-0.6217457056045532,0.6029605269432068
1789061763462630000,5.5356298828125,-2.5434048175811768,-0.8043393492698669,0.6342440843582153
1789061763472590800,5.5455908203125,-2.5650925636291504,-1.0768699645996094,0.651608407497406
1789061763482550800,5.55555078125,-2.617443561553955,-1.4097492694854736,0.5861459970474243
1789061763492512000,5.565511962890625,-2.6788089275360107,-1.3958728313446045,0.32976940274238586
1789061763502472000,5.575471923828125,-2.6783926486968994,-0.7878596782684326,-0.05076643452048302
1789061763512433000,5.585432861328125,-2.6536028385162354,0.20575319230556488,-0.30070117115974426
1789061763522393900,5.595393798828125,-2.513338565826416,1.2868502140045166,-0.37269163131713867
1789061763532353800,5.605353759765625,-2.2633211612701416,1.964866280555725,-0.3291603922843933
1789061763542315000,5.61531494140625,-2.0118277072906494,2.0253570079803467,-0.2097824066877365
1789061763552275000,5.62527490234375,-1.8567492961883545,1.4748942852020264,-0.05178080126643181
1789061763562236000,5.63523583984375,-1.8034861087799072,0.5272495746612549,-0.00034856749698519707
1789061763572196000,5.645196044921875,-1.8123317956924438,-0.4787673056125641,-0.09896115958690643
1789061763582156800,5.65515673828125,-1.8446729183197021,-1.1679421663284302,-0.28114843368530273
1789061763592116700,5.66511669921875,-1.8615161180496216,-1.3958128690719604,-0.46978092193603516
1789061763602077700,5.67507763671875,-1.8433126211166382,-1.2278631925582886,-0.6285261511802673
1789061763612039000,5.685038818359375,-1.7528111934661865,-0.8084957599639893,-0.7136314511299133
1789061763621998800,5.694998779296875,-1.6048117876052856,-0.3025028109550476,-0.6712665557861328
1789061763631959800,5.704959716796875,-1.4675534963607788,0.03632717207074165,-0.4682268798351288
1789061763641919700,5.714919677734375,-1.4028444290161133,0.09555725753307343,-0.16648335754871368
1789061763651880700,5.724880615234375,-1.396574854850769,-0.07851626724004745,0.12798182666301727
1789061763661841000,5.7348408203125,-1.444836139678955,-0.3832114040851593,0.34286418557167053
1789061763671801900,5.7448017578125,-1.5204672813415527,-0.7851351499557495,0.4213494062423706
1789061763681761800,5.75476171875,-1.5944956541061401,-1.131644606590271,0.36278024315834045
1789061763691722800,5.76472265625,-1.6295486688613892,-1.3327380418777466,0.20444253087043762
1789061763701683700,5.77468359375,-1.6433367729187012,-1.375891923904419,0.012782402336597443
1789061763711643600,5.7846435546875,-1.605865240097046,-1.2410863637924194,-0.14504611492156982
1789061763721604900,5.79460498046875,-1.5022201538085938,-0.9229510426521301,-0.22745390236377716
1789061763731564800,5.804564697265625,-1.3690439462661743,-0.5018032789230347,-0.20462581515312195
1789061763741526000,5.814526123046875,-1.2452794313430786,-0.12201257050037384,-0.089365154504776
1789061763751486000,5.82448583984375,-1.1671066284179688,0.10431057959794998,0.057738013565540314
1789061763761446700,5.83444677734375,-1.1231662034988403,0.20735345780849457,0.16759271919727325
1789061763771408000,5.844407958984375,-1.1070923805236816,0.21022115647792816,0.20270968973636627
1789061763781367800,5.854367919921875,-1.1076196432113647,0.09506557881832123,0.15730255842208862
1789061763791329000,5.8643291015625,-1.105210542678833,-0.09381699562072754,0.05521240457892418
1789061763801289000,5.8742890625,-1.0671638250350952,-0.2716871201992035,-0.07345612347126007
1789061763811249700,5.884249755859375,-0.9997779726982117,-0.401438444852829,-0.20076508820056915
1789061763821209900,5.8942099609375,-0.9199672937393188,-0.45753833651542664,-0.3030840754508972
1789061763831170800,5.9041708984375,-0.8208971619606018,-0.47328028082847595,-0.3823951184749603
1789061763841130800,5.914130859375,-0.7230715155601501,-0.47859010100364685,-0.41804516315460205
1789061763851092000,5.924092041015625,-0.6444084048271179,-0.4857742488384247,-0.4041290581226349
1789061763861052700,5.934052734375,-0.6039294600486755,-0.5113139748573303,-0.35053175687789917
1789061763871012900,5.944012939453125,-0.5982092618942261,-0.5276527404785156,-0.26328742504119873
1789061763880973800,5.953973876953125,-0.6072607636451721,-0.5170623064041138,-0.15363472700119019
1789061763890933800,5.963933837890625,-0.6120219826698303,-0.4866279363632202,-0.041773710399866104
1789061763900895000,5.97389501953125,-0.6069395542144775,-0.4379041790962219,0.04764202609658241
1789061763910855000,5.98385498046875,-0.591586172580719,-0.38592272996902466,0.09465161710977554
1789061763920815600,5.993815673828125,-0.5679849982261658,-0.33149608969688416,0.08813919126987457
1789061763930776800,6.00377685546875,-0.5350459814071655,-0.24516038596630096,0.028629258275032043
1789061763940736800,6.01373681640625,-0.5123697519302368,-0.12868677079677582,-0.04550175368785858
1789061763950698000,6.023697998046875,-0.5206910967826843,-0.027596374973654747,-0.08075322210788727
1789061763960658000,6.033657958984375,-0.5507035255432129,0.04892629384994507,-0.06155753508210182
1789061763970618600,6.04361865234375,-0.5748581290245056,0.1197219043970108,0.0010248888283967972
1789061763980578800,6.053578857421875,-0.5817468166351318,0.2126660943031311,0.09802062809467316
1789061763990539800,6.063539794921875,-0.5678499341011047,0.31009891629219055,0.21712252497673035
1789061764000499700,6.073499755859375,-0.5366697907447815,0.35283270478248596,0.32384976744651794
1789061764010461000,6.0834609375,-0.5043110847473145,0.33423611521720886,0.3660515546798706
1789061764020421600,6.093421630859375,-0.4847867488861084,0.25774550437927246,0.34448957443237305
1789061764030381800,6.1033818359375,-0.4857476055622101,0.13561879098415375,0.2878550589084625
1789061764040342800,6.1133427734375,-0.48428022861480713,-0.014972957782447338,0.21158233284950256
1789061764050302700,6.123302734375,-0.47392186522483826,-0.12812428176403046,0.13567185401916504
1789061764060264000,6.133263916015625,-0.4517558813095093,-0.1613129824399948,0.07165337353944778
1789061764070224000,6.143223876953125,-0.41171711683273315,-0.0764542818069458,0.033205047249794006
1789061764080184600,6.1531845703125,-0.35806137323379517,0.07172781229019165,0.04319005832076073
1789061764090144800,6.163144775390625,-0.2911755442619324,0.22173728048801422,0.08567281067371368
1789061764100105700,6.173105712890625,-0.22360052168369293,0.3277209997177124,0.12456321716308594
1789061764110067000,6.18306689453125,-0.16961371898651123,0.3697217106819153,0.12858112156391144
1789061764120027000,6.19302685546875,-0.13370037078857422,0.3400219678878784,0.09822078049182892
1789061764129987800,6.20298779296875,-0.10953883826732635,0.2573912441730499,0.040305014699697495
1789061764139947800,6.21294775390625,-0.09261732548475266,0.16966186463832855,-0.025599302724003792
1789061764149908700,6.22290869140625,-0.0753890722990036,0.10513933002948761,-0.07099980860948563
1789061764159868700,6.23286865234375,-0.05843810737133026,0.08731326460838318,-0.08106135576963425
1789061764169830000,6.242829833984375,-0.04090971499681473,0.1550411731004715,-0.05519567430019379
1789061764179790800,6.252790771484375,-0.019151922315359116,0.296017587184906,-0.005073839332908392
1789061764189750800,6.262750732421875,-0.01018612552434206,0.4296984374523163,0.06548261642456055
1789061764199711700,6.272711669921875,-0.01761949062347412,0.5080575942993164,0.13269813358783722
1789061764209671700,6.282671630859375,-0.036532994359731674,0.5396695733070374,0.1768120527267456
1789061764219633000,6.2926328125,-0.07225584238767624,0.47571852803230286,0.20796823501586914
1789061764229592800,6.3025927734375,-0.11940817534923553,0.31851425766944885,0.254155695438385
1789061764239554000,6.312553955078125,-0.17010176181793213,0.0953017994761467,0.29820695519447327
1789061764249514000,6.322513916015625,-0.19099292159080505,-0.03159196674823761,0.28013527393341064
1789061764259474700,6.332474609375,-0.16996118426322937,-0.010145692154765129,0.19513078033924103
1789061764269436000,6.342435791015625,-0.08145422488451004,0.1857156902551651,0.03138713166117668
1789061764279395800,6.352395751953125,0.08005578815937042,0.48425179719924927,-0.21681590378284454
1789061764289356800,6.362356689453125,0.2554640769958496,0.7163518667221069,-0.4916168451309204
1789061764299317000,6.37231689453125,0.370741605758667,0.6612507700920105,-0.6997246742248535
1789061764309277700,6.382277587890625,0.4247446656227112,0.3491455912590027,-0.7994246482849121
1789061764319237600,6.392237548828125,0.3944292664527893,-0.09480828046798706,-0.7827495336532593
1789061764329198800,6.40219873046875,0.2568351626396179,-0.5469789505004883,-0.6472976803779602
1789061764339159800,6.412159912109375,0.05036851763725281,-0.8766815662384033,-0.4382966160774231
1789061764349120000,6.4221201171875,-0.12446800619363785,-0.9899527430534363,-0.19277366995811462
1789061764359080700,6.432080810546875,-0.2247098982334137,-0.9484609365463257,0.04629766196012497
1789061764369040600,6.44204052734375,-0.2565155327320099,-0.7415841817855835,0.21337133646011353
1789061764379001900,6.452001953125,-0.2534659504890442,-0.4295617341995239,0.283042848110199
1789061764388961800,6.4619619140625,-0.23985028266906738,-0.09201912581920624,0.2750437557697296
1789061764398923000,6.471923095703125,-0.24296210706233978,0.18040186166763306,0.23006922006607056
1789061764408883000,6.481883056640625,-0.26361703872680664,0.33950361609458923,0.18041618168354034
1789061764418843600,6.49184375,-0.29633793234825134,0.4058281183242798,0.15005137026309967
1789061764428804900,6.501804931640625,-0.3253514766693115,0.4158852696418762,0.14953790605068207
1789061764438764800,6.511764892578125,-0.3446691036224365,0.37451109290122986,0.16418346762657166
1789061764448725800,6.521725830078125,-0.34970274567604065,0.30775657296180725,0.1532709002494812
1789061764458686000,6.53168603515625,-0.3247562348842621,0.2443048506975174,0.0972357913851738
1789061764468646700,6.541646728515625,-0.25549086928367615,0.18506230413913727,0.0014440137892961502
1789061764478606600,6.551606689453125,-0.14269138872623444,0.12963542342185974,-0.11417918652296066
1789061764488567800,6.56156787109375,-0.015166993252933025,0.06831853836774826,-0.22017672657966614
1789061764498528800,6.57152880859375,0.09693333506584167,0.021840104833245277,-0.289222776889801
1789061764508489000,6.581489013671875,0.15440382063388824,-0.027646755799651146,-0.2952260673046112
1789061764518449700,6.59144970703125,0.1525530219078064,-0.08264198154211044,-0.24014486372470856
1789061764528409600,6.60140966796875,0.1016930341720581,-0.12841986119747162,-0.13958284258842468
1789061764538370800,6.611370849609375,0.013791276142001152,-0.17729605734348297,-0.021208733320236206
1789061764548330800,6.621330810546875,-0.0906166210770607,-0.22610728442668915,0.07983532547950745
1789061764558292000,6.6312919921875,-0.17945298552513123,-0.2579739987850189,0.1296398639678955
1789061764568253000,6.6412529296875,-0.22415734827518463,-0.2507901191711426,0.13000178337097168
1789061764578212900,6.651212890625,-0.2138979732990265,-0.23741064965724945,0.0964043140411377
1789061764588174000,6.661174072265625,-0.16755923628807068,-0.21105600893497467,0.04067181050777435
1789061764598134000,6.671134033203125,-0.11223216354846954,-0.16038309037685394,-0.027516551315784454
1789061764608095200,6.68109521484375,-0.06951425969600677,-0.07503997534513474,-0.07888466864824295
1789061764618055200,6.69105517578125,-0.047239791601896286,-0.004041194915771484,-0.08792407810688019
1789061764628015900,6.701015869140625,-0.04334385320544243,0.028153758496046066,-0.06393112987279892
1789061764637976000,6.71097607421875,-0.04729967191815376,0.030848504975438118,-0.03840942680835724
1789061764647937000,6.72093701171875,-0.04716810956597328,0.019891994073987007,-0.03446288779377937
1789061764657898000,6.73089794921875,-0.04180055111646652,0.002841212321072817,-0.05225690081715584
1789061764667858200,6.740858154296875,-0.02957078255712986,-0.03487660363316536,-0.07349827140569687
1789061764677819100,6.750819091796875,-0.024721914902329445,-0.07901803404092789,-0.07685772329568863
1789061764687779000,6.760779052734375,-0.02811504900455475,-0.12254340946674347,-0.053893815726041794
1789061764697740000,6.770739990234375,-0.041798386722803116,-0.17438483238220215,0.004390622954815626
1789061764707700000,6.780699951171875,-0.0674414336681366,-0.2240234911441803,0.07604563981294632
1789061764717661200,6.7906611328125,-0.09620746225118637,-0.24121302366256714,0.1278173327445984
1789061764727622100,6.8006220703125,-0.12219085544347763,-0.22311285138130188,0.14564719796180725
1789061764737582000,6.81058203125,-0.1406991183757782,-0.18741506338119507,0.1409868746995926
1789061764747543000,6.82054296875,-0.13899175822734833,-0.14140336215496063,0.13328899443149567
1789061764757503000,6.8305029296875,-0.12083806097507477,-0.0724397823214531,0.1393364816904068
1789061764767464200,6.840464111328125,-0.09928909689188004,0.0019052911084145308,0.1751256287097931
1789061764777424100,6.850424072265625,-0.08605261892080307,0.055731356143951416,0.23399221897125244
1789061764787385000,6.860385009765625,-0.08863136172294617,0.09680609405040741,0.28066757321357727
1789061764797346000,6.870345947265625,-0.09635712951421738,0.12267942726612091,0.29275020956993103
1789061764807306000,6.880305908203125,-0.10866653174161911,0.12473219633102417,0.2645007371902466
1789061764817267200,6.89026708984375,-0.11370795965194702,0.12285072356462479,0.21469587087631226
1789061764827227100,6.90022705078125,-0.12306071817874908,0.12355566024780273,0.16650091111660004
1789061764837188000,6.91018798828125,-0.13729028403759003,0.1206982359290123,0.1498505026102066
1789061764847148300,6.920148193359375,-0.15201009809970856,0.09288444370031357,0.16924363374710083
1789061764857109000,6.93010888671875,-0.191254660487175,-0.03887287154793739,0.22673247754573822
1789061764867069000,6.94006884765625,-0.24612510204315186,-0.23976017534732819,0.28719714283943176
1789061764877030100,6.950030029296875,-0.302259236574173,-0.40459775924682617,0.27910876274108887
1789061764886991000,6.9599912109375,-0.32847991585731506,-0.2978050112724304,0.1572134792804718
1789061764896951000,6.969950927734375,-0.27070724964141846,0.16937695443630219,-0.044883791357278824
1789061764906912000,6.979912109375,-0.11307232826948166,0.8579188585281372,-0.23297913372516632
1789061764916872000,6.989871826171875,0.02312258444726467,1.4302548170089722,-0.283047616481781
1789061764926833200,6.999833251953125,0.08990401029586792,1.661548137664795,-0.17580051720142365
1789061764936793000,7.00979296875,0.08081014454364777,1.5255848169326782,0.02796120196580887
1789061764946754000,7.019754150390625,0.01001373864710331,1.034388542175293,0.21112462878227234
1789061764956715000,7.029715087890625,-0.11207389831542969,0.38037845492362976,0.2647237479686737
1789061764966675000,7.039675048828125,-0.24089498817920685,-0.23069822788238525,0.16318754851818085
1789061764976636200,7.04963623046875,-0.315037339925766,-0.625749409198761,-0.03357193246483803
1789061764986596000,7.05959619140625,-0.31831327080726624,-0.817850649356842,-0.2117222398519516
1789061764996557000,7.06955712890625,-0.2820464074611664,-0.8433021306991577,-0.318224161863327
1789061765006517200,7.079517333984375,-0.25808700919151306,-0.7643857598304749,-0.32930877804756165
1789061765016478000,7.08947802734375,-0.26549863815307617,-0.6443748474121094,-0.2611476480960846
1789061765026438000,7.09943798828125,-0.29863715171813965,-0.5495904684066772,-0.1550915241241455
1789061765036399000,7.109399169921875,-0.3485543727874756,-0.4963110685348511,-0.06291927397251129
1789061765046360000,7.119360107421875,-0.4047188460826874,-0.4538262188434601,-0.019424263387918472
1789061765056320000,7.129320068359375,-0.4529951810836792,-0.401446133852005,-0.03148819878697395
1789061765066281000,7.139281005859375,-0.48191389441490173,-0.32875171303749084,-0.07851722836494446
1789061765076241000,7.149240966796875,-0.48516082763671875,-0.20851777493953705,-0.14062432944774628
1789061765086202000,7.1592021484375,-0.4731358587741852,-0.02684091590344906,-0.18984247744083405
1789061765096162000,7.169162109375,-0.465086430311203,0.1822565644979477,-0.20292474329471588
1789061765106123000,7.179123046875,-0.4671455919742584,0.37204301357269287,-0.190945565700531
1789061765116084200,7.189084228515625,-0.47571861743927,0.5299575924873352,-0.17500975728034973
1789061765126044200,7.199044189453125,-0.4902421534061432,0.6369490027427673,-0.16771243512630463
1789061765136005000,7.209005126953125,-0.4911223351955414,0.7250511646270752,-0.16315069794654846
1789061765145965000,7.218965087890625,-0.4616304934024811,0.8170303702354431,-0.16177891194820404
1789061765155926000,7.228926025390625,-0.40449103713035583,0.9042924642562866,-0.15578632056713104
1789061765165886200,7.23888623046875,-0.325761079788208,0.946021556854248,-0.14853346347808838
1789061765175847200,7.24884716796875,-0.2380695790052414,0.9089658856391907,-0.14373905956745148
1789061765185808000,7.258807861328125,-0.16263234615325928,0.7818963527679443,-0.13962607085704803
1789061765195768000,7.26876806640625,-0.11442934721708298,0.5653319358825684,-0.1352529525756836
1789061765205729000,7.27872900390625,-0.0991920754313469,0.2528666853904724,-0.13406731188297272
1789061765215689000,7.28868896484375,-0.11906407028436661,-0.10967960953712463,-0.14858664572238922
1789061765225650200,7.298650146484375,-0.16189543902873993,-0.4014382064342499,-0.17970727384090424
1789061765235610000,7.308610107421875,-0.18472832441329956,-0.5802854895591736,-0.20908424258232117
1789061765245571000,7.318571044921875,-0.1875544786453247,-0.6661564707756042,-0.21501217782497406
1789061765255532000,7.328531982421875,-0.16680048406124115,-0.6868895888328552,-0.19964832067489624
1789061765265492000,7.338491943359375,-0.14067408442497253,-0.6608566641807556,-0.18142272531986237
1789061765275453200,7.348453125,-0.11424189805984497,-0.5942782759666443,-0.1747911125421524
1789061765285413000,7.3584130859375,-0.10106484591960907,-0.5318407416343689,-0.17598021030426025
1789061765295374000,7.3683740234375,-0.09587226808071136,-0.48851263523101807,-0.17925548553466797
1789061765305334000,7.378333984375,-0.10019218176603317,-0.46018725633621216,-0.173744335770607
1789061765315295000,7.388294921875,-0.11187195032835007,-0.41423502564430237,-0.1563660353422165
1789061765325256200,7.398256103515625,-0.11682942509651184,-0.33531516790390015,-0.12284748256206512
1789061765335216000,7.408216064453125,-0.1102820411324501,-0.23974095284938812,-0.08570129424333572
1789061765345177000,7.418177001953125,-0.08795436471700668,-0.11545815318822861,-0.0585908517241478
1789061765355137000,7.428136962890625,-0.04975932464003563,0.024967873468995094,-0.05043775588274002
1789061765365098000,7.438097900390625,-0.0033068708144128323,0.16214756667613983,-0.04611198604106903
1789061765375058200,7.44805810546875,0.044797252863645554,0.23817221820354462,-0.026956716552376747
1789061765385019100,7.45801904296875,0.07439109683036804,0.24758195877075195,0.0029543102718889713
1789061765394979800,7.467979736328125,0.09311626851558685,0.2155364751815796,0.03426763042807579
1789061765404940000,7.47793994140625,0.09373518079519272,0.16270068287849426,0.04918026551604271
1789061765414901000,7.48790087890625,0.08131846785545349,0.09246864914894104,0.049460191279649734
1789061765424861000,7.49786083984375,0.06793102622032166,0.02970672771334648,0.046041227877140045
1789061765434822100,7.507822265625,0.05709173157811165,-0.0041019609197974205,0.05607970058917999
1789061765444782000,7.517781982421875,0.04542974755167961,-0.003101411508396268,0.09468994289636612
1789061765454743000,7.527742919921875,0.029439663514494896,0.006362104322761297,0.16359539330005646
1789061765464704000,7.5377041015625,0.002887947717681527,0.007795417681336403,0.22931741178035736
1789061765474664000,7.547663818359375,-0.026500312611460686,0.027738992124795914,0.264749675989151
1789061765484625200,7.557625244140625,-0.04559144750237465,0.08434688299894333,0.26062098145484924
1789061765494585000,7.567585205078125,-0.050172917544841766,0.15790167450904846,0.25191688537597656
1789061765504546000,7.577546142578125,-0.05827345699071884,0.19802992045879364,0.2661301791667938
1789061765514506000,7.587506103515625,-0.09295986592769623,0.19911035895347595,0.31351229548454285
1789061765524467000,7.597467041015625,-0.15356755256652832,0.16349057853221893,0.4081011414527893
1789061765534428200,7.60742822265625,-0.2410917580127716,0.005748538766056299,0.5533616542816162
1789061765544388000,7.61738818359375,-0.35284918546676636,-0.3008081912994385,0.6957286596298218
1789061765554349000,7.62734912109375,-0.47843167185783386,-0.5173119306564331,0.7310714721679688
1789061765564309200,7.637309326171875,-0.5283526182174683,-0.5593531131744385,0.601110577583313
1789061765574270000,7.64727001953125,-0.40096625685691833,-0.32391464710235596,0.25470346212387085
1789061765584230000,7.65722998046875,-0.06484442949295044,0.31541815400123596,-0.335954487323761
1789061765594190800,7.66719091796875,0.4696315824985504,1.1911104917526245,-1.0554640293121338
1789061765604152000,7.677152099609375,0.9910604357719421,1.6779283285140991,-1.5814838409423828
1789061765614112000,7.687112060546875,1.3112825155258179,1.6323847770690918,-1.7788054943084717
1789061765624072700,7.69707275390625,1.3266640901565552,1.0904219150543213,-1.6763036251068115
1789061765634033000,7.707032958984375,1.0348140001296997,0.21807286143302917,-1.2925915718078613
1789061765643993900,7.716993896484375,0.5701257586479187,-0.8330371379852295,-0.7582828998565674
1789061765653953800,7.726953857421875,0.06486497074365616,-1.848401427268982,-0.20895911753177643
1789061765663915000,7.7369150390625,-0.31435611844062805,-2.4765067100524902,0.256484717130661
1789061765673875700,7.746875732421875,-0.5512703657150269,-2.605952739715576,0.5568012595176697
1789061765683836000,7.7568359375,-0.6788176894187927,-2.2901623249053955,0.6683136820793152
1789061765693796900,7.766796875,-0.6676658987998962,-1.580024003982544,0.6011819243431091
1789061765703756800,7.7767568359375,-0.5548418760299683,-0.6666771173477173,0.4508315324783325
1789061765713718000,7.786718017578125,-0.39338940382003784,0.22724080085754395,0.3329233229160309
1789061765723678000,7.796677978515625,-0.24479220807552338,0.9141325950622559,0.2982167601585388
1789061765733639000,7.806638916015625,-0.14491242170333862,1.3357112407684326,0.3351894021034241
1789061765743598800,7.816598876953125,-0.0869670957326889,1.5577977895736694,0.38675618171691895
1789061765753559800,7.826559814453125,-0.049917466938495636,1.5893837213516235,0.41176101565361023
1789061765763521000,7.83652099609375,-0.005206452216953039,1.3896121978759766,0.38176557421684265
1789061765773481000,7.84648095703125,0.051270950585603714,1.0331228971481323,0.28458020091056824
1789061765783441700,7.856441650390625,0.13476477563381195,0.5983179211616516,0.14443480968475342
1789061765793401900,7.86640185546875,0.2415604442358017,0.14995791018009186,0.007920992560684681
1789061765803362800,7.87636279296875,0.34834545850753784,-0.24183036386966705,-0.10914784669876099
1789061765813322800,7.88632275390625,0.40447935461997986,-0.5064873099327087,-0.1935189962387085
1789061765823284000,7.896283935546875,0.39299046993255615,-0.6533126831054688,-0.24649779498577118
1789061765833245000,7.906244873046875,0.3338467478752136,-0.6844209432601929,-0.25274765491485596
1789061765843204900,7.916204833984375,0.2528112828731537,-0.577718198299408,-0.19977818429470062
1789061765853165800,7.926165771484375,0.17389057576656342,-0.41283461451530457,-0.10014623403549194
1789061765863125800,7.936125732421875,0.10553256422281265,-0.2522534728050232,0.026439670473337173
1789061765873087000,7.9460869140625,0.05452878028154373,-0.148923859000206,0.1450149267911911
1789061765883048000,7.9560478515625,0.027520595118403435,-0.06897550076246262,0.20607827603816986
1789061765893008000,7.9660078125,0.018063029274344444,0.01069040596485138,0.1943727284669876
1789061765902968800,7.97596875,0.015266974456608295,0.06190405786037445,0.12945657968521118
1789061765912928800,7.9859287109375,0.033208590000867844,0.11785995215177536,0.03388432413339615
1789061765922890000,7.995889892578125,0.06010172516107559,0.1812266707420349,-0.04392179101705551
1789061765932850000,8.005849853515626,0.08819457143545151,0.2205931395292282,-0.07515329122543335
1789061765942811100,8.01581103515625,0.1100199818611145,0.22051191329956055,-0.07088877260684967
1789061765952771800,8.025771728515625,0.12215949594974518,0.19354188442230225,-0.06467556208372116
1789061765962731800,8.035731689453126,0.12799154222011566,0.14451442658901215,-0.08270623534917831
1789061765972693000,8.04569287109375,0.1371430903673172,0.08508633822202682,-0.1285342127084732
1789061765982653000,8.05565283203125,0.1392190158367157,0.04012685641646385,-0.1763073354959488
1789061765992614000,8.06561376953125,0.12883280217647552,0.018967565149068832,-0.17939770221710205
1789061766002574000,8.075573974609375,0.123716339468956,0.00223838584497571,-0.12873852252960205
1789061766012534800,8.08553466796875,0.12357147783041,-0.015910465270280838,-0.059053003787994385
1789061766022496000,8.09549609375,0.11066606640815735,-0.04601909592747688,0.0009621270000934601
1789061766032456000,8.1054560546875,0.08335767686367035,-0.06462741643190384,0.024547969922423363
1789061766042417000,8.1154169921875,0.05363812670111656,-0.06581944227218628,0.02862553484737873
1789061766052377000,8.125377197265625,0.02540392056107521,-0.06659861654043198,0.031127657741308212
1789061766062337800,8.135337890625,-0.006611003540456295,-0.04508399963378906,0.0439734160900116
1789061766072297700,8.145297607421876,-0.039427250623703,-0.019092535600066185,0.08729297667741776
1789061766082259000,8.155259033203125,-0.06944400072097778,-0.001726595452055335,0.1642839014530182
1789061766092220000,8.165219970703125,-0.07844340801239014,0.0066483342088758945,0.2370811551809311
1789061766102180000,8.17518017578125,-0.083692766726017,0.03866618871688843,0.2858087718486786
1789061766112140800,8.185140869140625,-0.09891317784786224,0.0652376189827919,0.340427964925766
1789061766122100700,8.195100830078125,-0.11235415190458298,0.06562165170907974,0.3965338468551636
1789061766132062000,8.20506201171875,-0.11285251379013062,0.06047163903713226,0.4380066692829132
1789061766142022000,8.21502197265625,-0.10873473435640335,0.029899880290031433,0.46866923570632935
1789061766151982800,8.22498291015625,-0.11045882105827332,-0.02969406545162201,0.4812001883983612
1789061766161943800,8.23494384765625,-0.12563592195510864,-0.150678813457489,0.46790117025375366
1789061766171903700,8.24490380859375,-0.16278885304927826,-0.34315207600593567,0.40596818923950195
1789061766181865000,8.254864990234376,-0.2084817737340927,-0.5848000645637512,0.2808704376220703
1789061766191825000,8.264824951171875,-0.26066645979881287,-0.8181413412094116,0.10463660955429077
1789061766201785900,8.274785888671875,-0.32771581411361694,-0.9691620469093323,-0.06822730600833893
1789061766211746000,8.28474609375,-0.3886469900608063,-0.9078632593154907,-0.2285386323928833
1789061766221706800,8.294706787109375,-0.4017380177974701,-0.540915846824646,-0.36828240752220154
1789061766231668000,8.30466796875,-0.3679540455341339,0.04324370622634888,-0.45794418454170227
1789061766241628000,8.3146279296875,-0.3145366311073303,0.7213393449783325,-0.5135115385055542
1789061766251588900,8.3245888671875,-0.26130643486976624,1.2748116254806519,-0.5520696043968201
1789061766261549000,8.334549072265625,-0.19760599732398987,1.5506112575531006,-0.5510157942771912
1789061766271509800,8.344509765625,-0.16419818997383118,1.4983694553375244,-0.5041325092315674
1789061766281469700,8.3544697265625,-0.17084836959838867,1.146770715713501,-0.4108515679836273
1789061766291431000,8.364430908203126,-0.2181357443332672,0.5538026690483093,-0.24630801379680634
1789061766301392000,8.374391845703125,-0.2976188361644745,-0.20818281173706055,-0.02971206046640873
1789061766311352000,8.38435205078125,-0.41768720746040344,-0.9269706010818481,0.13897396624088287
1789061766321313000,8.39431298828125,-0.536042332649231,-1.3889920711517334,0.17944149672985077
1789061766331273000,8.40427294921875,-0.6194239854812622,-1.641135573387146,0.11019617319107056
1789061766341234000,8.41423388671875,-0.659784734249115,-1.6946288347244263,-0.03090742416679859
1789061766351193900,8.42419384765625,-0.65833580493927,-1.5050337314605713,-0.21765100955963135
1789061766361154800,8.43415478515625,-0.6010056734085083,-1.0898151397705078,-0.4279041290283203
1789061766371116000,8.444115966796875,-0.5069465041160583,-0.4868588149547577,-0.5959662199020386
1789061766381076000,8.454075927734374,-0.4410673975944519,0.15697263181209564,-0.6274812817573547
1789061766391037000,8.464036865234375,-0.453426331281662,0.6407124400138855,-0.49392855167388916
1789061766400996900,8.473996826171875,-0.48395147919654846,0.9436006546020508,-0.26664799451828003
1789061766410957800,8.483957763671874,-0.5129622220993042,1.0433074235916138,-0.033572424203157425
1789061766420918000,8.49391796875,-0.5290653109550476,0.9920306205749512,0.11938170343637466
1789061766430879000,8.50387890625,-0.5550599694252014,0.8545131683349609,0.15216368436813354
1789061766440840000,8.51383984375,-0.5780004858970642,0.6798948049545288,0.08153478801250458
1789061766450799900,8.5237998046875,-0.591660737991333,0.47573164105415344,-0.025096453726291656
1789061766460760800,8.5337607421875,-0.6035448312759399,0.26925089955329895,-0.12427151203155518
1789061766470721000,8.543720947265625,-0.623552680015564,0.07659653574228287,-0.18789233267307281
1789061766480682000,8.553681884765625,-0.6499038934707642,-0.07703883200883865,-0.20769159495830536
1789061766490642000,8.563641845703126,-0.6606544852256775,-0.1758190393447876,-0.20075927674770355
1789061766500603000,8.573602783203125,-0.6507261991500854,-0.24694035947322845,-0.18561947345733643
1789061766510563800,8.583563720703125,-0.6295454502105713,-0.30873146653175354,-0.19298195838928223
1789061766520523800,8.593523681640624,-0.606328010559082,-0.32656773924827576,-0.21780714392662048
1789061766530485000,8.603485107421875,-0.5708813071250916,-0.2734995484352112,-0.23081430792808533
1789061766540445000,8.61344482421875,-0.5246538519859314,-0.15522456169128418,-0.2101162225008011
1789061766550406000,8.623406005859374,-0.49364373087882996,0.017053503543138504,-0.15106885135173798
1789061766560365800,8.63336572265625,-0.4990645945072174,0.19491352140903473,-0.07473599165678024
1789061766570326800,8.643326904296876,-0.5349205136299133,0.32925915718078613,-0.005629540886729956
1789061766580288000,8.6532880859375,-0.5720793604850769,0.3802048861980438,0.04186207801103592
1789061766590247400,8.663247314453125,-0.5937264561653137,0.3433808982372284,0.059468451887369156
1789061766600208600,8.673208740234376,-0.5921299457550049,0.25203371047973633,0.048444829881191254
1789061766610168600,8.68316845703125,-0.5697856545448303,0.13403205573558807,0.026403408497571945
1789061766620129300,8.69312939453125,-0.5430941581726074,0.016534719616174698,0.007046487648040056
1789061766630090500,8.703090576171874,-0.5213544964790344,-0.048805732280015945,-0.0044151307083666325
1789061766640050400,8.713050537109375,-0.5080642700195312,-0.04348659887909889,-0.006188529543578625
1789061766650011600,8.72301171875,-0.501285970211029,0.003637770190834999,0.014204360544681549
1789061766659971600,8.7329716796875,-0.49760761857032776,0.05972234159708023,0.04335319250822067
1789061766669932300,8.742932373046875,-0.49521633982658386,0.1196640357375145,0.05928651988506317
1789061766679892500,8.752892578125,-0.48745375871658325,0.16884863376617432,0.0524752214550972
1789061766689853400,8.762853515625,-0.4711666703224182,0.1960202157497406,0.03719247505068779
1789061766699814400,8.772814453125,-0.4569006562232971,0.2007438689470291,0.02743598446249962
1789061766709774600,8.782774658203126,-0.44327881932258606,0.1789652407169342,0.024606743827462196
1789061766719735300,8.7927353515625,-0.4264465868473053,0.18463857471942902,0.023018434643745422
1789061766729695200,8.8026953125,-0.40462443232536316,0.2346373349428177,0.04232314974069595
1789061766739656400,8.812656494140626,-0.3902686834335327,0.3030688464641571,0.09368966519832611
1789061766749616400,8.822616455078125,-0.3983132541179657,0.3383883237838745,0.15909311175346375
1789061766759577600,8.83257763671875,-0.4375453293323517,0.3248293697834015,0.21872101724147797
1789061766769538300,8.842538330078124,-0.4976975917816162,0.27446249127388,0.2667508125305176
1789061766779498200,8.852498291015625,-0.5752384066581726,0.15868555009365082,0.3053903579711914
1789061766789459500,8.86245947265625,-0.6579626202583313,0.03239388391375542,0.33398547768592834
1789061766799419400,8.87241943359375,-0.7163337469100952,-0.054259251803159714,0.3591507375240326
1789061766809380600,8.882380615234375,-0.7358286380767822,-0.08183704316616058,0.37136298418045044
1789061766819340500,8.892340576171875,-0.7174035906791687,-0.04889800027012825,0.36603212356567383
1789061766829301200,8.90230126953125,-0.6813228726387024,0.05697762966156006,0.367923378944397
1789061766839262500,8.912262451171875,-0.6544622182846069,0.15701501071453094,0.4215357303619385
1789061766849222400,8.922222412109376,-0.6705013513565063,0.13234250247478485,0.5466952919960022
1789061766859183600,8.93218359375,-0.7467889189720154,-0.09040562063455582,0.7047362923622131
1789061766869143600,8.9421435546875,-0.8668630719184875,-0.3908088505268097,0.8021547794342041
1789061766879104300,8.952104248046876,-0.9768689274787903,-0.5905320644378662,0.7699862122535706
1789061766889065500,8.9620654296875,-1.0783601999282837,-0.7048181295394897,0.6416484117507935
1789061766899025400,8.972025390625,-1.1456961631774902,-0.7491350173950195,0.47347649931907654
1789061766908986400,8.981986328125,-1.1183500289916992,-0.6749574542045593,0.2559231221675873
1789061766918946600,8.991946533203125,-1.0245667695999146,-0.4908505082130432,-0.009855024516582489
1789061766928907500,9.001907470703125,-0.8834210634231567,-0.15941765904426575,-0.29550111293792725
1789061766938867500,9.011867431640624,-0.7190542221069336,0.1995101273059845,-0.5499100089073181
1789061766948828400,9.021828369140625,-0.5930768251419067,0.4005894958972931,-0.7211304306983948
1789061766958789400,9.031789306640626,-0.5214375257492065,0.5039449334144592,-0.7959120273590088
1789061766968749600,9.04174951171875,-0.5350199341773987,0.4379051923751831,-0.7282295823097229
1789061766978710500,9.05171044921875,-0.6612510681152344,0.13825483620166779,-0.4839324951171875
1789061766988670500,9.06167041015625,-0.9092206954956055,-0.323956161737442,-0.12496168166399002
1789061766998631400,9.07163134765625,-1.2123249769210815,-0.7858902215957642,0.23636828362941742
1789061767008591400,9.08159130859375,-1.4659764766693115,-1.0464142560958862,0.4731370508670807
1789061767018552600,9.091552490234376,-1.6395055055618286,-1.0837408304214478,0.5732170343399048
1789061767028513500,9.101513427734375,-1.748691439628601,-0.976533830165863,0.5702131390571594
1789061767038473500,9.111473388671875,-1.8134260177612305,-0.7445591688156128,0.4889407157897949
1789061767048434400,9.121434326171874,-1.8559446334838867,-0.46766310930252075,0.3566299080848694
1789061767058394400,9.131394287109375,-1.8944883346557617,-0.20862965285778046,0.20231835544109344
1789061767068355300,9.141355224609375,-1.931344747543335,-0.06895037740468979,0.08909756690263748
1789061767078315500,9.1513154296875,-1.957705020904541,-0.05703912302851677,0.03131735697388649
1789061767088276500,9.1612763671875,-1.948970079421997,-0.0853058397769928,-0.0019164420664310455
1789061767098237400,9.171237548828126,-1.914381980895996,-0.16675515472888947,-0.01649751514196396
1789061767108197400,9.181197265625,-1.8675042390823364,-0.2336890697479248,-0.023571506142616272
1789061767118158300,9.191158447265625,-1.8088628053665161,-0.23305204510688782,-0.021245501935482025
1789061767128118500,9.201118408203126,-1.752644419670105,-0.17522850632667542,-0.008409915491938591
1789061767138079500,9.21107958984375,-1.7047045230865479,-0.12093384563922882,0.005502969957888126
1789061767148040400,9.22104052734375,-1.669580340385437,-0.07518649101257324,0.01504976861178875
1789061767158000400,9.23100048828125,-1.6625869274139404,-0.04912053421139717,0.024281349033117294
1789061767167961300,9.24096142578125,-1.692692518234253,-0.04195307940244675,0.034189071506261826
1789061767177921500,9.250921630859375,-1.7638084888458252,-0.043325938284397125,0.03934122622013092
1789061767187882500,9.260882568359374,-1.8592958450317383,-0.048082079738378525,0.06292857229709625
1789061767197842400,9.270842529296875,-1.952404499053955,-0.09006334841251373,0.10091643780469894
1789061767207803400,9.280803466796876,-2.023768663406372,-0.16972491145133972,0.142597958445549
1789061767217764400,9.290764404296874,-2.0817298889160156,-0.25792402029037476,0.16955260932445526
1789061767227724500,9.300724609375,-2.134387493133545,-0.33652761578559875,0.1654115617275238
1789061767237685500,9.310685546875,-2.1704964637756348,-0.4092119634151459,0.13486775755882263
1789061767247645400,9.3206455078125,-2.178596258163452,-0.45748791098594666,0.09163226187229156
1789061767257606400,9.3306064453125,-2.166266918182373,-0.4571339786052704,0.05022250488400459
1789061767267567400,9.3405673828125,-2.1526708602905273,-0.404231458902359,0.02322543039917946
1789061767277527300,9.35052734375,-2.1433868408203125,-0.3102610111236572,0.019291941076517105
1789061767287488500,9.360488525390625,-2.1337077617645264,-0.1911681890487671,0.046884723007678986
1789061767297448400,9.370448486328126,-2.1048238277435303,-0.06973816454410553,0.08895814418792725
1789061767307409400,9.380409423828125,-2.0594587326049805,0.01567346602678299,0.10811389237642288
1789061767317369300,9.390369384765625,-2.0004987716674805,0.06692333519458771,0.08191265165805817
1789061767327330300,9.400330322265624,-1.9403691291809082,0.055483631789684296,0.005607830826193094
1789061767337291500,9.41029150390625,-1.8800405263900757,-0.033506959676742554,-0.09228358417749405
1789061767347251500,9.42025146484375,-1.8389047384262085,-0.12353502959012985,-0.1797122359275818
1789061767357212400,9.43021240234375,-1.8248682022094727,-0.17479263246059418,-0.21686173975467682
1789061767367172400,9.44017236328125,-1.8406531810760498,-0.17762577533721924,-0.19302895665168762
1789061767377133300,9.45013330078125,-1.8627214431762695,-0.14244195818901062,-0.12284267693758011
1789061767387093500,9.460093505859374,-1.8844287395477295,-0.1091618537902832,-0.033051997423172
1789061767397054500,9.470054443359375,-1.8931317329406738,-0.0833188071846962,0.025921840220689774
1789061767407015400,9.480015380859374,-1.8835657835006714,-0.05293705686926842,0.026370536535978317
1789061767416975600,9.4899755859375,-1.8543298244476318,-0.03816370293498039,-0.017944728955626488
1789061767426936300,9.499936279296875,-1.7999846935272217,-0.038210611790418625,-0.062177762389183044
1789061767436896300,9.509896240234376,-1.7252495288848877,-0.03425821289420128,-0.08431369066238403
1789061767446857500,9.519857421875,-1.6415034532546997,-0.037155646830797195,-0.06329628825187683
1789061767456818400,9.529818359375,-1.5562653541564941,-0.053341008722782135,0.00037882523611187935
1789061767466778600,9.539778564453124,-1.4821499586105347,-0.07453212141990662,0.0723986104130745
1789061767476739300,9.5497392578125,-1.4281796216964722,-0.07507540285587311,0.1135345920920372
1789061767486699300,9.55969921875,-1.3883874416351318,-0.05582108348608017,0.10870295017957687
1789061767496660500,9.569660400390624,-1.3550164699554443,-0.03381218761205673,0.06864581257104874
1789061767506620400,9.579620361328125,-1.3235893249511719,-0.010648606345057487,0.011025214567780495
1789061767516581600,9.58958154296875,-1.2831635475158691,0.008807916194200516,-0.025242511183023453
1789061767526542300,9.599542236328125,-1.2237383127212524,0.01925123669207096,-0.03918362408876419
1789061767536502300,9.609502197265625,-1.1462528705596924,0.020916776731610298,-0.03196166455745697
1789061767546463500,9.61946337890625,-1.0657545328140259,0.030275005847215652,-0.012478058226406574
1789061767556423400,9.62942333984375,-0.990349531173706,0.04304193705320358,0.0193491131067276
1789061767566384600,9.639384521484375,-0.9314003586769104,0.04408774524927139,0.04365614056587219
1789061767576344600,9.649344482421874,-0.8858743906021118,0.028275225311517715,0.05222592502832413
1789061767586306000,9.65930615234375,-0.8508194088935852,0.010261290706694126,0.05519961938261986
1789061767596267000,9.66926708984375,-0.8141764402389526,-0.0029554448556154966,0.06965312361717224
1789061767606227000,9.67922705078125,-0.7724454402923584,0.010276876389980316,0.10579324513673782
1789061767616188200,9.689188232421875,-0.7292710542678833,0.05216680094599724,0.1627555936574936
1789061767626148000,9.699148193359376,-0.6774124503135681,0.07862242311239243,0.22028999030590057
1789061767636109000,9.709109130859375,-0.6170242428779602,0.07494726032018661,0.243497833609581
1789061767646070000,9.719070068359375,-0.5509040355682373,0.04688951000571251,0.22538232803344727
1789061767656030000,9.729030029296876,-0.4955122172832489,-0.010546352714300156,0.1829501837491989
1789061767665991200,9.7389912109375,-0.44832339882850647,-0.10564891993999481,0.15812192857265472
1789061767675951000,9.748951171875,-0.4257863759994507,-0.2692551612854004,0.17818032205104828
1789061767685912000,9.758912109375,-0.4297679662704468,-0.46284717321395874,0.21574322879314423
1789061767695872000,9.7688720703125,-0.4417886734008789,-0.5802174806594849,0.2017110288143158
1789061767705833000,9.7788330078125,-0.4542367160320282,-0.6688253283500671,0.13209745287895203
1789061767715794200,9.788794189453125,-0.491876482963562,-0.7860166430473328,0.02888929657638073
1789061767725754000,9.798754150390625,-0.5451301336288452,-0.8955519795417786,-0.10132533311843872
1789061767735714800,9.80871484375,-0.5774779319763184,-0.8162763714790344,-0.2629120945930481
1789061767745675000,9.818675048828124,-0.552129328250885,-0.5142294764518738,-0.4005756676197052
1789061767755636000,9.828635986328125,-0.44440072774887085,0.16254018247127533,-0.49308857321739197
1789061767765597200,9.83859716796875,-0.2283475399017334,1.1438387632369995,-0.5296505689620972
1789061767775557000,9.84855712890625,0.051415666937828064,1.844711184501648,-0.4505789577960968
1789061767785517800,9.858517822265625,0.28472352027893066,2.084580421447754,-0.2877882122993469
1789061767795478000,9.86847802734375,0.3788636028766632,1.819630742073059,-0.05819309875369072
1789061767805439000,9.87843896484375,0.28812161087989807,1.03298819065094,0.18491744995117188
1789061767815399000,9.88839892578125,0.03743292763829231,-0.10400443524122238,0.4011296331882477
1789061767825360100,9.898360107421874,-0.2606114149093628,-1.2140753269195557,0.500106692314148
1789061767835320800,9.90832080078125,-0.4979877769947052,-1.9945775270462036,0.48327839374542236
1789061767845281000,9.918281005859376,-0.6337166428565979,-2.414335250854492,0.3535090982913971
1789061767855242000,9.928241943359374,-0.672109067440033,-2.4919142723083496,0.14826594293117523
1789061767865202000,9.938201904296875,-0.623022198677063,-2.1992297172546387,-0.08634786307811737
1789061767875163100,9.9481630859375,-0.5187064409255981,-1.5898323059082031,-0.27958497405052185
1789061767885124000,9.9581240234375,-0.37903985381126404,-0.8017417788505554,-0.37894901633262634
1789061767895084000,9.968083984375,-0.25041502714157104,0.010690385475754738,-0.3546111583709717
1789061767905045000,9.978044921875,-0.1939983069896698,0.6760938763618469,-0.22606173157691956
1789061767915005000,9.9880048828125,-0.20843423902988434,1.1162744760513306,-0.04771143198013306
1789061767924966100,9.997966064453125,-0.23532068729400635,1.3868167400360107,0.12117603421211243
1789061767934926000,10.007926025390624,-0.24831132590770721,1.514708399772644,0.23751568794250488
1789061767944887000,10.017886962890625,-0.2476024329662323,1.5094940662384033,0.27517765760421753
1789061767954848000,10.027847900390626,-0.23531673848628998,1.3542160987854004,0.25263532996177673
1789061767964808000,10.037807861328124,-0.2107972949743271,1.0490710735321045,0.19068272411823273
1789061767974769200,10.04776904296875,-0.1777498722076416,0.6453718543052673,0.08921360969543457
1789061767984729000,10.05772900390625,-0.15554529428482056,0.22323954105377197,-0.027401303872466087
1789061767994690000,10.06768994140625,-0.1459597796201706,-0.10931205749511719,-0.12153659015893936
1789061768004651000,10.077651123046875,-0.13960888981819153,-0.30972835421562195,-0.16486665606498718
1789061768014611000,10.08761083984375,-0.12893201410770416,-0.40258318185806274,-0.15002326667308807
1789061768024572200,10.097572265625,-0.13247758150100708,-0.43309083580970764,-0.09953512996435165
1789061768034532000,10.107531982421875,-0.15195541083812714,-0.4283525347709656,-0.03291855752468109
1789061768044493000,10.1174931640625,-0.16371001303195953,-0.36302873492240906,0.014599554240703583
1789061768054453200,10.127453369140625,-0.16072966158390045,-0.2505810260772705,0.040781356394290924
1789061768064414000,10.1374140625,-0.13704875111579895,-0.14300580322742462,0.052550312131643295
1789061768074375000,10.147375,-0.1185818538069725,-0.08564744144678116,0.05981302261352539
1789061768084335000,10.157335205078125,-0.11041982471942902,-0.06258934736251831,0.06279890984296799
1789061768094296000,10.167296142578126,-0.11126484721899033,-0.037327125668525696,0.0694059431552887
1789061768104256000,10.177256103515624,-0.11017976701259613,0.0036629680544137955,0.10136327892541885
1789061768114217000,10.187217041015625,-0.10544706135988235,0.026509961113333702,0.15480734407901764
1789061768124178000,10.197177978515626,-0.09934600442647934,0.040232203900814056,0.21230794489383698
1789061768134138000,10.20713818359375,-0.0894387811422348,0.050526123493909836,0.2591598629951477
1789061768144099000,10.21709912109375,-0.06704676896333694,0.05684228986501694,0.289491206407547
1789061768154059000,10.22705908203125,-0.02231871709227562,0.050996385514736176,0.30304110050201416
1789061768164020000,10.23702001953125,0.03228754922747612,0.061662912368774414,0.27603721618652344
1789061768173980000,10.24697998046875,0.0695212110877037,0.07437524944543839,0.231807678937912
1789061768183941000,10.256941162109374,0.07238461077213287,0.12309716641902924,0.19362670183181763
1789061768193902000,10.266902099609375,0.059211548417806625,0.14917297661304474,0.19565363228321075
1789061768203862000,10.276862060546875,0.0572701059281826,0.18841837346553802,0.22882355749607086
1789061768213823000,10.286822998046874,0.06935393065214157,0.23024705052375793,0.2593039870262146
1789061768223783000,10.296782958984375,0.09307973831892014,0.29212310910224915,0.2813853621482849
1789061768233744000,10.306743896484376,0.12419797480106354,0.38515424728393555,0.3021063506603241
1789061768243705000,10.316705078125,0.16173423826694489,0.48408079147338867,0.3374345302581787
1789061768253665000,10.3266650390625,0.19477421045303345,0.6007360219955444,0.3825748562812805
1789061768263626000,10.3366259765625,0.2182222604751587,0.6880155205726624,0.42074257135391235
1789061768273586000,10.3465859375,0.21566694974899292,0.7194642424583435,0.4537857472896576
1789061768283547000,10.356546875,0.192993625998497,0.6403670907020569,0.47201472520828247
1789061768293508000,10.366508056640624,0.1578550785779953,0.5469028949737549,0.4611567258834839
1789061768303468000,10.376468017578125,0.12658505141735077,0.4967343211174011,0.4440509080886841
1789061768313429000,10.386428955078125,0.0941285789012909,0.4764663279056549,0.47273528575897217
1789061768323389000,10.396388916015624,0.033880408853292465,0.3792169690132141,0.5843299627304077
1789061768333350000,10.406349853515625,-0.07306202501058578,0.23653945326805115,0.7299503087997437
1789061768343310000,10.41631005859375,-0.18036000430583954,0.10469267517328262,0.8028780817985535
1789061768353271000,10.42627099609375,-0.2244877815246582,0.07654519379138947,0.683882474899292
1789061768363232300,10.436232177734375,-0.16997919976711273,0.15781281888484955,0.3270091712474823
1789061768373192200,10.446192138671876,0.02649497613310814,0.25594362616539,-0.1460726410150528
1789061768383153000,10.45615283203125,0.3421767055988312,0.22531285881996155,-0.5970011949539185
1789061768393113000,10.466113037109375,0.6279690861701965,0.011916951276361942,-0.9647988677024841
1789061768403074000,10.476073974609376,0.8043230175971985,-0.2309071570634842,-1.2207410335540771
1789061768413035000,10.486034912109375,0.8551145195960999,-0.4208821654319763,-1.2839837074279785
1789061768422995200,10.4959951171875,0.8115963935852051,-0.6185879707336426,-1.1348284482955933
1789061768432956000,10.505955810546874,0.7071648240089417,-0.7301134467124939,-0.827174961566925
1789061768442915800,10.515915771484375,0.5658644437789917,-0.7620116472244263,-0.44516870379447937
1789061768452877000,10.525876953125,0.4187253415584564,-0.8307294845581055,-0.09079410880804062
1789061768462837000,10.5358369140625,0.2583828270435333,-0.89925217628479,0.1734059602022171
1789061768472798200,10.545798095703125,0.06959082186222076,-0.9531537294387817,0.3432439863681793
1789061768482759000,10.555759033203126,-0.09163596481084824,-1.0227926969528198,0.4329104721546173
1789061768492718800,10.56571875,-0.19426992535591125,-1.0467315912246704,0.43011122941970825
1789061768502680000,10.57568017578125,-0.23168261349201202,-0.986034095287323,0.3433559834957123
1789061768512640000,10.585639892578126,-0.22614510357379913,-0.8020275235176086,0.2029234915971756
1789061768522601200,10.595601318359375,-0.17122052609920502,-0.47473999857902527,0.0451800674200058
1789061768532562000,10.60556201171875,-0.0760093405842781,-0.018356207758188248,-0.09184729307889938
1789061768542521900,10.61552197265625,0.04351705685257912,0.4812653064727783,-0.17165173590183258
1789061768552483000,10.625483154296875,0.17254135012626648,0.8775889277458191,-0.19638849794864655
1789061768562443000,10.635443115234375,0.28615647554397583,1.1765878200531006,-0.19508413970470428
1789061768572404000,10.645404052734374,0.37857484817504883,1.3551101684570312,-0.1943690925836563
1789061768582365000,10.655364990234375,0.42513659596443176,1.3574082851409912,-0.19467701017856598
1789061768592325000,10.6653251953125,0.414916455745697,1.196270227432251,-0.17752517759799957
1789061768602286000,10.6752861328125,0.354465126991272,0.8613510131835938,-0.13052628934383392
1789061768612246300,10.685246337890625,0.2668580412864685,0.37405458092689514,-0.06594809144735336
1789061768622207200,10.695207275390626,0.16841603815555573,-0.1534264236688614,0.00971588958054781
1789061768632167200,10.705167236328125,0.06148533523082733,-0.550710916519165,0.06901650130748749
1789061768642128100,10.715128173828125,-0.0541999377310276,-0.7768722176551819,0.1015562042593956
1789061768652089000,10.725089111328124,-0.1656542867422104,-0.8705188035964966,0.12148649990558624
1789061768662049300,10.73504931640625,-0.26743847131729126,-0.8735352158546448,0.1441170573234558
1789061768672010200,10.74501025390625,-0.3437838554382324,-0.7945210933685303,0.16804714500904083
1789061768681970200,10.75497021484375,-0.3863336443901062,-0.6335030198097229,0.1884235143661499
1789061768691931100,10.76493115234375,-0.3804430067539215,-0.39733603596687317,0.19136576354503632
1789061768701892000,10.77489208984375,-0.32349371910095215,-0.13913196325302124,0.18165290355682373
1789061768711852000,10.78485205078125,-0.21562664210796356,0.0658067911863327,0.15280687808990479
1789061768721813200,10.794813232421875,-0.08153609186410904,0.20214422047138214,0.09818167984485626
1789061768731773200,10.804773193359376,0.044607460498809814,0.26813602447509766,0.029187168926000595
1789061768741734100,10.814734130859375,0.11905554682016373,0.25695565342903137,-0.04085791856050491
1789061768751695000,10.824695068359375,0.14732126891613007,0.21310032904148102,-0.10846732556819916
1789061768761655000,10.834655029296876,0.14259201288223267,0.17765523493289948,-0.16146650910377502
1789061768771616300,10.8446162109375,0.11860466748476028,0.166708305478096,-0.17589125037193298
1789061768781576200,10.854576171875,0.09140701591968536,0.1877376139163971,-0.15182755887508392
1789061768791537400,10.864537353515624,0.06313196569681168,0.22140024602413177,-0.1161116287112236
1789061768801497300,10.874497314453125,0.04093026742339134,0.2339131236076355,-0.09826857596635818
1789061768811458000,10.8844580078125,0.021508632227778435,0.21518898010253906,-0.10509159415960312
1789061768821419300,10.894419189453124,0.020877264440059662,0.15788353979587555,-0.1227162629365921
1789061768831379200,10.904379150390625,0.041114892810583115,0.043214213103055954,-0.13485388457775116
1789061768841340400,10.91434033203125,0.06978968530893326,-0.1030617505311966,-0.13408701121807098
1789061768851300400,10.92430029296875,0.09267529100179672,-0.23247992992401123,-0.11820871382951736
1789061768861261000,10.934260986328125,0.0988771989941597,-0.3102550804615021,-0.10463589429855347
1789061768871222300,10.94422216796875,0.09533306956291199,-0.29178258776664734,-0.08647473156452179
1789061768881182200,10.95418212890625,0.08309411257505417,-0.2150847613811493,-0.0590113028883934
1789061768891143200,10.96414306640625,0.06476384401321411,-0.12187598645687103,-0.019790135324001312
1789061768901103400,10.974103271484376,0.043752577155828476,-0.04307594150304794,0.022604219615459442
1789061768911064000,10.98406396484375,0.02445318177342415,-0.014103412628173828,0.06014600023627281
1789061768921025300,10.994025390625,-0.005794812925159931,-0.04148572310805321,0.08744312822818756
1789061768930985200,11.003985107421874,-0.04253951087594032,-0.09133024513721466,0.09665660560131073
1789061768940946200,11.0139462890625,-0.07482493668794632,-0.15844596922397614,0.10801990330219269
1789061768950906400,11.02390625,-0.11210253834724426,-0.27114856243133545,0.1543906033039093
1789061768960867000,11.0338671875,-0.148098424077034,-0.4436424672603607,0.24093270301818848
1789061768970827000,11.043826904296875,-0.19050872325897217,-0.6532353758811951,0.33253026008605957
1789061768980788200,11.053788330078126,-0.2598731219768524,-0.8638880252838135,0.3749261498451233
1789061768990749200,11.063749267578125,-0.3549732565879822,-1.0448168516159058,0.3213590383529663
1789061769000709400,11.07370947265625,-0.4393978714942932,-1.0924134254455566,0.16089853644371033
1789061769010670000,11.083670166015626,-0.4310555160045624,-0.7577786445617676,-0.10583008825778961
1789061769020630000,11.093630126953125,-0.28708770871162415,0.12793080508708954,-0.4613707959651947
1789061769030591200,11.10359130859375,-0.0553053542971611,1.2952123880386353,-0.7391518354415894
1789061769040552200,11.11355224609375,0.13709452748298645,2.1138384342193604,-0.7740864753723145
1789061769050512100,11.12351220703125,0.22852005064487457,2.4628937244415283,-0.6099824905395508
1789061769060473000,11.13347314453125,0.19052356481552124,2.268322467803955,-0.3395439088344574
1789061769070433000,11.14343310546875,0.03591640293598175,1.5174083709716797,-0.04725772142410278
1789061769080394200,11.153394287109375,-0.14004844427108765,0.44072818756103516,0.16367900371551514
1789061769090355200,11.163355224609376,-0.2977837324142456,-0.617178201675415,0.24616187810897827
1789061769100315100,11.173315185546874,-0.41898271441459656,-1.3858213424682617,0.21058133244514465
1789061769110276000,11.183276123046875,-0.509847104549408,-1.7752652168273926,0.08256582915782928
1789061769120236000,11.193236083984376,-0.5595546364784241,-1.7527016401290894,-0.07537209987640381
1789061769130197200,11.203197265625,-0.5577932000160217,-1.4510939121246338,-0.17291544377803802
1789061769140158200,11.213158203125,-0.5063032507896423,-0.9718230962753296,-0.17414355278015137
1789061769150118100,11.2231181640625,-0.4191105365753174,-0.38212278485298157,-0.10690166056156158
1789061769160079400,11.233079345703125,-0.3056674599647522,0.22542345523834229,-0.00968646164983511
1789061769170039300,11.243039306640625,-0.1972336620092392,0.7128341197967529,0.08807898312807083
1789061769180000300,11.253000244140624,-0.10753212869167328,1.0412474870681763,0.16474956274032593
1789061769189960200,11.262960205078125,-0.03040352836251259,1.2240277528762817,0.21288911998271942
1789061769199921200,11.272921142578125,0.018052954226732254,1.2702906131744385,0.2586912512779236
1789061769209882400,11.28288232421875,0.010726598091423512,1.1640530824661255,0.32367849349975586
1789061769219842300,11.29284228515625,-0.05097806453704834,0.9146760106086731,0.39683428406715393
1789061769229803000,11.302802978515626,-0.13677100837230682,0.526003897190094,0.4503731429576874
1789061769239763200,11.31276318359375,-0.22365930676460266,0.09183567017316818,0.45236092805862427
1789061769249724200,11.32272412109375,-0.26843929290771484,-0.22702087461948395,0.39358285069465637
1789061769259685400,11.332685302734374,-0.2717786431312561,-0.41224807500839233,0.3175492584705353
1789061769269645300,11.342645263671875,-0.2584252953529358,-0.5484561920166016,0.2654511630535126
1789061769279606000,11.35260595703125,-0.23803973197937012,-0.6251162886619568,0.23698434233665466
1789061769289566200,11.362566162109376,-0.21913661062717438,-0.6386946439743042,0.22301927208900452
1789061769299527200,11.372527099609375,-0.19789496064186096,-0.6089639663696289,0.23948800563812256
1789061769309488400,11.38248828125,-0.16568882763385773,-0.5627226829528809,0.27304330468177795
1789061769319448300,11.3924482421875,-0.12433028221130371,-0.5008994936943054,0.29813170433044434
1789061769329409000,11.402408935546875,-0.08408485352993011,-0.44093257188796997,0.2932908833026886
1789061769339369200,11.412369140625,-0.051010746508836746,-0.3963649570941925,0.26108500361442566
1789061769349330200,11.422330078125,-0.017067426815629005,-0.3378449082374573,0.20804226398468018
1789061769359291100,11.432291015625,0.027540970593690872,-0.2641909122467041,0.15765830874443054
1789061769369251300,11.442251220703126,0.09206270426511765,-0.19375161826610565,0.12233573198318481
1789061769379212000,11.4522119140625,0.15512749552726746,-0.11437986046075821,0.11244677752256393
1789061769389172000,11.462171875,0.1859874129295349,-0.043414875864982605,0.13136985898017883
1789061769399133200,11.47213330078125,0.17574147880077362,-0.006722255609929562,0.1755206286907196
1789061769409093000,11.482093017578125,0.13275405764579773,-0.013887224718928337,0.21782760322093964
1789061769419054300,11.492054443359375,0.0713910460472107,-0.046877309679985046,0.2438104897737503
1789061769429015000,11.50201513671875,0.009593457914888859,-0.08476530015468597,0.2498404085636139
1789061769438975000,11.51197509765625,-0.03680894151329994,-0.11414667218923569,0.24719640612602234
1789061769448936200,11.521936279296876,-0.06021333485841751,-0.1296318769454956,0.2341330498456955
1789061769458896100,11.531896240234374,-0.07250912487506866,-0.12479762732982635,0.22877590358257294
1789061769468857300,11.541857421875,-0.0858912393450737,-0.07246412336826324,0.24807903170585632
1789061769478818300,11.551818359375,-0.08066634088754654,0.041440196335315704,0.2846866548061371
1789061769488778200,11.5617783203125,-0.058624159544706345,0.2047862410545349,0.3202912509441376
1789061769498739200,11.5717392578125,-0.022980185225605965,0.3643938899040222,0.33903050422668457
1789061769508699100,11.58169921875,0.028820162639021873,0.4924224317073822,0.3082001507282257
1789061769518660000,11.59166015625,0.07420624792575836,0.5494216680526733,0.24581845104694366
1789061769528621300,11.601621337890625,0.09412083774805069,0.524636447429657,0.18907208740711212
1789061769538581200,11.611581298828124,0.09632013738155365,0.4593029022216797,0.1682976931333542
1789061769548542200,11.621542236328125,0.08313190191984177,0.4034700095653534,0.18525616824626923
1789061769558502100,11.631502197265625,0.047830577939748764,0.38717371225357056,0.23537088930606842
1789061769568463000,11.641463134765624,-0.03566218540072441,0.3714922070503235,0.31849321722984314
1789061769578424300,11.65142431640625,-0.1531084030866623,0.2299899011850357,0.43890640139579773
1789061769588384300,11.66138427734375,-0.2896987497806549,-0.041030153632164,0.5813719630241394
1789061769598345000,11.671344970703124,-0.37468811869621277,-0.34319373965263367,0.7046430706977844
1789061769608305200,11.68130517578125,-0.3821612000465393,-0.4792887270450592,0.7257806062698364
1789061769618266000,11.69126611328125,-0.28127723932266235,-0.44316035509109497,0.5850751996040344
1789061769628227300,11.701227294921875,-0.09693906456232071,-0.22302186489105225,0.28123247623443604
1789061769638187300,11.711187255859375,0.1443747580051422,0.07943254709243774,-0.13743185997009277
1789061769648148000,11.72114794921875,0.40139347314834595,0.37269583344459534,-0.6158903241157532
1789061769658108200,11.731108154296875,0.6005918383598328,0.5467690825462341,-1.052794337272644
1789061769668069000,11.741069091796875,0.7415058016777039,0.6674028038978577,-1.3256065845489502
1789061769678030300,11.7510302734375,0.7885956764221191,0.6484381556510925,-1.3584469556808472
1789061769687990300,11.760990234375,0.6997795701026917,0.40366193652153015,-1.128929615020752
1789061769697951000,11.770950927734376,0.5191739797592163,-0.001440495252609253,-0.7112888097763062
1789061769707911200,11.7809111328125,0.32025638222694397,-0.5606944561004639,-0.2220563143491745
1789061769717872000,11.7908720703125,0.1558479219675064,-1.075326681137085,0.15737394988536835
1789061769727832000,11.80083203125,0.052432842552661896,-1.2255382537841797,0.2860317826271057
1789061769737793300,11.810793212890625,-0.02321496047079563,-1.088399052619934,0.1671558916568756
1789061769747754000,11.82075390625,-0.053019195795059204,-0.7705022692680359,-0.07379148155450821
1789061769757714000,11.8307138671875,-0.04675551876425743,-0.40598392486572266,-0.2933792471885681
1789061769767675100,11.840675048828125,-0.04397358000278473,-0.054343611001968384,-0.4070592224597931
1789061769777635000,11.850635009765625,-0.058238863945007324,0.22758696973323822,-0.43820086121559143
1789061769787596300,11.86059619140625,-0.0761084109544754,0.48679083585739136,-0.4562874436378479
1789061769797557000,11.870556884765625,-0.024756737053394318,0.7456310987472534,-0.47728821635246277
1789061769807517000,11.880516845703125,0.07127765566110611,0.9455165266990662,-0.4430072009563446
1789061769817478100,11.89047802734375,0.1984511762857437,1.0729176998138428,-0.33198678493499756
1789061769827438000,11.90043798828125,0.32166633009910583,1.0761041641235352,-0.16554348170757294
1789061769837399300,11.9103994140625,0.41253891587257385,0.9323247671127319,0.004042478743940592
1789061769847360300,11.9203603515625,0.4595338702201843,0.6165737509727478,0.10698270797729492
1789061769857320200,11.9303203125,0.4822620153427124,0.26147353649139404,0.09161376953125
1789061769867281200,11.94028125,0.490172415971756,-0.0644741952419281,-0.037256594747304916
1789061769877241000,11.950240966796875,0.48623090982437134,-0.2804204225540161,-0.19268697500228882
1789061769887202300,11.960202392578125,0.46768197417259216,-0.4079115390777588,-0.28072044253349304
1789061769897163300,11.970163330078124,0.4201924800872803,-0.48383674025535583,-0.2794096767902374
1789061769907123200,11.980123291015625,0.3388965427875519,-0.4903827905654907,-0.2208843231201172
1789061769917084200,11.990084228515625,0.233931303024292,-0.4670652747154236,-0.1355370581150055
1789061769927044000,12.000044189453124,0.14176543056964874,-0.44507262110710144,-0.061496928334236145
1789061769937005000,12.010005126953125,0.07846957445144653,-0.40295839309692383,-0.0220396276563406
1789061769946966300,12.01996630859375,0.03604728356003761,-0.3555522561073303,-0.011543044820427895
1789061769956926200,12.02992626953125,0.020301802083849907,-0.3152519166469574,-0.010337029583752155
1789061769966887200,12.03988720703125,0.03722033277153969,-0.2747114300727844,0.002588089555501938
1789061769976847000,12.04984716796875,0.07993024587631226,-0.23439569771289825,0.034101277589797974
1789061769986808000,12.05980810546875,0.12332060188055038,-0.20519067347049713,0.06285036355257034
1789061769996768300,12.069768310546875,0.14631696045398712,-0.20057310163974762,0.07195711135864258
1789061770006729200,12.079729248046876,0.1418633610010147,-0.2290593385696411,0.04518089070916176
1789061770016690200,12.089690185546875,0.1234804317355156,-0.25765642523765564,-0.0008640880696475506
1789061770026650000,12.099650146484375,0.108449287712574,-0.28582867980003357,-0.029058974236249924
1789061770036611000,12.109611083984374,0.09200423210859299,-0.3003863990306854,-0.02591569721698761
1789061770046571300,12.1195712890625,0.06654760986566544,-0.2867898941040039,0.00940287858247757
1789061770056532200,12.1295322265625,0.028333725407719612,-0.2724170982837677,0.0814371332526207
1789061770066493000,12.139492919921874,-0.010082106105983257,-0.2747308611869812,0.1613530069589615
1789061770076453000,12.149453125,-0.033248499035835266,-0.27755963802337646,0.2061845064163208
1789061770086414000,12.1594140625,-0.041125062853097916,-0.2720508873462677,0.20655494928359985
1789061770096374000,12.1693740234375,-0.03509489819407463,-0.2665656805038452,0.17952194809913635
1789061770106335200,12.179335205078125,-0.017499659210443497,-0.23563119769096375,0.1423838883638382
1789061770116296000,12.1892958984375,-0.008323702029883862,-0.18131698668003082,0.13318687677383423
1789061770126256000,12.199256103515625,-0.017958752810955048,-0.12692271173000336,0.15740540623664856
1789061770136217000,12.209217041015625,-0.02591177076101303,-0.0866808146238327,0.18230710923671722
1789061770146177000,12.219177001953126,-0.019996624439954758,-0.04040732607245445,0.18049828708171844
1789061770156138200,12.22913818359375,-0.0016990883741527796,-0.015746664255857468,0.14703050255775452
1789061770166099000,12.239098876953125,0.020796632394194603,-0.02828322723507881,0.09781236946582794
1789061770176059100,12.24905908203125,0.025366386398673058,-0.09649946540594101,0.08373935520648956
1789061770186020000,12.25902001953125,0.010767737403512001,-0.2419954091310501,0.14074912667274475
1789061770195980000,12.26897998046875,-0.0242337416857481,-0.4214905798435211,0.25673362612724304
1789061770205941200,12.278941162109374,-0.09552177041769028,-0.6333175897598267,0.38366973400115967
1789061770215902200,12.288902099609375,-0.19640736281871796,-0.7935885190963745,0.4210597276687622
1789061770225862100,12.298862060546876,-0.29364684224128723,-0.7134952545166016,0.3350561261177063
