time,seconds_elapsed,z,y,x
1788983109272712700,0.067712646484375,0.08208090183734894,-0.12624328416883945,0.2180455522166565
1788983109282671600,0.077671630859375,0.08235562712550162,-0.1290169136006385,0.21619117478793487
1788983109292631800,0.0876318359375,0.18391455189287662,-0.13482779183648527,0.25347716854391616
1788983109302591700,0.097591796875,0.20763328113257884,-0.10447188960462808,0.2611185684088617
1788983109312550700,0.107550537109375,0.14437749127447605,-0.12964922015480695,0.21997416392536834
1788983109322510600,0.117510498046875,0.08335048338174819,-0.13239479253590106,0.1920311863204464
1788983109332470500,0.127470458984375,0.08356383387148379,-0.13439758372567592,0.19291286452580242
1788983109342430000,0.137429931640625,0.009588497078418731,-0.11470599111020564,0.20318265839926897
1788983109352390000,0.147389892578125,0.06609422815442084,-0.11391659429818392,0.23156212772531434
1788983109362349800,0.157349853515625,0.08845920469760894,-0.06646664166338741,0.27397432365491986
1788983109372308700,0.167308837890625,0.0011404022067785262,-0.07035984970964491,0.22863540835734456
1788983109382268700,0.1772685546875,0.0013444003462791442,-0.07221548751369118,0.2305805510757491
1788983109392227600,0.1872275390625,-0.05728840588629246,-0.07942322693541645,0.10812451209435239
1788983109402187800,0.197187744140625,-0.04341127170324325,-0.07562661113142967,0.07304744025922845
1788983109412147700,0.207147705078125,-0.023204934498667715,-0.12382621308974921,0.07959699433343484
1788983109422106600,0.217106689453125,-0.009703063368797301,-0.11959347089082002,0.02917794906024355
1788983109432066600,0.227066650390625,-0.009929857861995696,-0.11696290319152176,0.03727101081598084
1788983109442026800,0.23702685546875,-0.07145604744851589,-0.1393591516558081,-0.10041226634974591
1788983109451986000,0.24698583984375,-0.09190905289053916,-0.15860533859133719,-0.14147139456942676
1788983109461945900,0.25694580078125,-0.03955284270942211,-0.16179207886867225,-0.11109019349953159
1788983109471905800,0.26690576171875,0.01277180328965187,-0.151167151414603,-0.06630897601679898
1788983109481864700,0.27686474609375,0.012308861953020096,-0.1467541572779417,-0.0673642206907738
1788983109491825000,0.286824951171875,0.13536241016983985,-0.12545680996626615,-0.08080840681665577
1788983109501783800,0.29678369140625,0.1715016450434923,-0.14493052204735576,-0.10914746193392201
1788983109511743700,0.30674365234375,0.1428589034050703,-0.17361578765325247,-0.12417973923515528
1788983109521703700,0.31670361328125,0.12140227387845516,-0.16013817418180404,-0.08178290527146309
1788983109531662600,0.32666259765625,0.12103460960984229,-0.15661007312089203,-0.07918434014562517
1788983109541622800,0.336622802734375,0.06067044954001903,-0.089445220060274,-0.020293752909835892
1788983109551582700,0.346582763671875,0.04922784902751445,-0.07119542375095188,-0.020941528744483365
1788983109561542000,0.3565419921875,0.039136078602075575,-0.09347586381584405,-0.029171259024553
1788983109571501800,0.366501708984375,0.09894961905181407,-0.08286817975752055,0.00017334955619880928
1788983109581460700,0.376460693359375,0.09863280818760395,-0.08017455675937235,-0.006581145655713044
1788983109591420700,0.386420654296875,0.21504034251868723,-0.07483816416747868,0.08234289550809189
1788983109601380900,0.396380859375,0.22308219467699528,-0.08684095584601163,0.06087087204952258
1788983109611339800,0.40633984375,0.225294610029459,-0.13997699129320681,0.07277921777709853
1788983109621299700,0.4162998046875,0.19424480724930762,-0.19869089993797243,0.07351074235546402
1788983109631259600,0.426259765625,0.19419921454191208,-0.1982674868941307,0.07359851653703954
1788983109641218600,0.436218505859375,0.10157412233650684,-0.1766064939018339,0.09804441384039819
1788983109651178800,0.4461787109375,0.10186638328135013,-0.17932539747171103,0.09736898966371081
1788983109661138700,0.456138671875,0.06895078662931918,-0.21373393609523772,0.049679625082737766
1788983109671097900,0.466097900390625,0.08233399981558323,-0.22305304164774714,0.043123001946927975
1788983109681057800,0.476057861328125,0.08239537461400032,-0.22362499631680546,0.04311061738939024
1788983109691016700,0.4860166015625,0.14252104975283145,-0.24600137103684244,0.06663127134030218
1788983109700977000,0.495976806640625,0.12938450480401514,-0.28398250745013354,0.08361825833930633
1788983109710936800,0.505936767578125,0.14420797992646694,-0.2883800117567181,0.09946414444521069
1788983109720895700,0.515895751953125,0.15133154819607733,-0.278207065853849,0.09069694628757424
1788983109730855700,0.525855712890625,0.15157880095541476,-0.2808198787007481,0.08587220214540138
1788983109740816000,0.53581591796875,0.18927520214319227,-0.29997268826439977,0.11688394707064144
1788983109750774800,0.54577490234375,0.2378290974318981,-0.30582338705398143,0.13318517572861163
1788983109760734700,0.555734619140625,0.2567950791865587,-0.31958938901275397,0.14331827367828226
1788983109770694700,0.565694580078125,0.2515653618395328,-0.3376522113826126,0.13148725837008096
1788983109780653800,0.57565380859375,0.25208675536513325,-0.3424406147029251,0.13297206270089373
1788983109790613800,0.58561376953125,0.11768880631327629,-0.3361164531826973,0.09330784117202275
1788983109800573000,0.595572998046875,0.1182633913308382,-0.34148594432659446,0.09447043694430031
1788983109810532900,0.605532958984375,0.0656955842256546,-0.3174276809342205,0.131689146750886
1788983109820492800,0.615492919921875,0.02363572713136673,-0.30662096717245874,0.12450586591698229
1788983109830451700,0.62545166015625,0.02386661327779293,-0.3087600250277668,0.1255804180796258
1788983109840411600,0.63541162109375,0.047969957920908926,-0.3102681645683944,0.10232111391206271
1788983109850371800,0.645371826171875,0.048204351198673244,-0.3124728350058198,0.1030621872034855
1788983109860330800,0.655330810546875,0.027287819898128507,-0.25991145764142276,0.14872395951356737
1788983109870290700,0.665290771484375,0.04465747237205505,-0.2368434473954141,0.1519077132493723
1788983109880250600,0.675250732421875,0.044697219860553736,-0.23737638522833585,0.14971465105134993
1788983109890209800,0.685209716796875,0.12771160315573216,-0.21484737722985445,0.22748667671363798
1788983109900169700,0.695169677734375,0.1274094053387642,-0.21214410962052643,0.22457257936522362
1788983109910129000,0.70512890625,0.2756225292533636,-0.24575696782171724,0.16736512976065276
1788983109920088800,0.7150888671875,0.32927754707336426,-0.27505371638946235,0.15425689759086816
1788983109930048800,0.725048828125,0.32851299244165416,-0.26791948059536513,0.1527404925453942
1788983109940007700,0.735007568359375,0.5139513929009437,-0.4047314319863915,0.05866931145121343
1788983109949968000,0.7449677734375,0.5131126039892435,-0.3968505425434559,0.05912282737237401
1788983109959928800,0.7549287109375,0.6821113263010978,-0.5309313154049218,-0.07822007995704189
1788983109969887700,0.7648876953125,0.7203606851965189,-0.5560278358038514,-0.1281895776647143
1788983109979847700,0.77484765625,0.7200666706860065,-0.552949085945636,-0.12257479738970287
1788983109989807900,0.784807861328125,0.4991828628361225,-0.4253351710107177,-0.24173750304728744
1788983109999766800,0.794766845703125,0.500224480843544,-0.43453013872690494,-0.23458759476002305
1788983110009726700,0.804726806640625,-0.0345686245560646,-0.16077698354199527,-0.2936224789874628
1788983110019685600,0.814685546875,-0.2321954754590988,-0.11940269755907357,-0.2570630094077438
1788983110029645600,0.8246455078125,-0.3582604804515838,-0.08752243530414998,-0.23288957693679257
1788983110039605800,0.834605712890625,-0.42361178128421306,-0.16812033204212784,-0.24723336051721123
1788983110049565000,0.84456494140625,-0.42219080857038493,-0.18223171337246893,-0.2359780992703512
1788983110059524900,0.85452490234375,-0.4500082053005695,-0.3267262551553547,-0.32674748060647396
1788983110069484800,0.86448486328125,-0.4164198239535093,-0.40650092587694525,-0.3293076499506831
1788983110079443700,0.874443603515625,-0.3872936827123165,-0.42141368671804663,-0.2775270294341258
1788983110089404000,0.88440380859375,-0.42036183957755563,-0.4600635161731392,-0.2294278921755962
1788983110099363800,0.89436376953125,-0.41929508712887764,-0.4713388703599572,-0.2319087309395894
1788983110109322800,0.90432275390625,-0.32233927224278447,-0.5885001456677913,-0.12724733751169406
1788983110119282700,0.91428271484375,-0.17054419818818567,-0.6272584039334207,-0.05202846236436162
1788983110129241600,0.92424169921875,0.01221066227555275,-0.7082460306413472,0.04337506331212353
1788983110139201800,0.934201904296875,0.2000800892740488,-0.7828538931842893,0.1221593393234536
1788983110149161700,0.94416162109375,0.20013737241923807,-0.78442618400231,0.10543510861359535
1788983110159121000,0.954120849609375,0.5119400530785322,-0.9070869335092604,0.172168694117479
1788983110169080800,0.964080810546875,0.5118342546164989,-0.9072282416760921,0.1578310662832111
1788983110179040800,0.974040771484375,0.6644932520240545,-0.9417798420321196,0.1728132390987128
1788983110188999700,0.983999755859375,0.803483789563179,-1.0561054555226117,0.22178240065742283
1788983110198959900,0.9939599609375,0.8161889573574066,-1.1053002059981227,0.16678290942590682
1788983110208918800,1.003918701171875,0.7403530873894691,-1.144491302723065,0.10644595702341757
1788983110218878700,1.013878662109375,0.6715577835828066,-1.1524205613523721,0.018337291929684578
1788983110228838700,1.023838623046875,0.5620411778092383,-1.1383810762144624,-0.045435653670318425
1788983110238797600,1.033797607421875,0.4046300174385309,-1.1138370020665227,-0.028076285128388553
1788983110248757800,1.0437578125,0.2421212416678667,-1.0496358211170882,-0.015834159135492517
1788983110258717700,1.0537177734375,0.09762041627466678,-0.9826164409417658,-0.03485472975475713
1788983110268676900,1.0636767578125,-0.02286883441209793,-0.9167921157699078,-0.04193682436966337
1788983110278636800,1.07363671875,-0.11575345433652401,-0.8849725707262754,-0.051940587718086316
1788983110288597000,1.083596923828125,-0.12231588159203528,-0.8224851348921656,-0.047353543055616315
1788983110298556000,1.093555908203125,-0.10791618483960629,-0.8150402987789362,-0.0926394677906297
1788983110308515800,1.103515869140625,-0.022077391773462293,-0.8181650066707282,-0.1619267380990088
1788983110318474800,1.113474853515625,-0.06578969224989414,-0.8210551751542836,-0.1424313804416917
1788983110328434700,1.1234345703125,-0.12046879242062568,-0.777884653404355,-0.15286163470703176
1788983110338395000,1.133394775390625,-0.15463760400414467,-0.7554818290688097,-0.18230481514129787
1788983110348353800,1.143353759765625,-0.15101882898509503,-0.7230425446916371,-0.19298472418561577
1788983110358313700,1.153313720703125,-0.1495206993818283,-0.7221384354587644,-0.19536007501482963
1788983110368273700,1.163273681640625,-0.09993629200160503,-0.7033953026745468,-0.21116317229177803
1788983110378232800,1.17323291015625,-0.06985796460211277,-0.7226829175990075,-0.2768829228443093
1788983110388192800,1.18319287109375,-0.0068231240183115,-0.7251638476945459,-0.3087444621324539
1788983110398152700,1.193152587890625,-0.008006780844926833,-0.7123257011704146,-0.3108719026152044
1788983110408111900,1.20311181640625,0.11487491793632507,-0.6973734851017593,-0.3067251947319135
1788983110418071800,1.21307177734375,0.15065058019459246,-0.714527595128864,-0.36222996860444545
1788983110428030700,1.22303076171875,0.1471422798126936,-0.7317593004368245,-0.42098581669479607
1788983110437990700,1.23299072265625,0.13921031776964662,-0.7479048179432749,-0.48339156559482216
1788983110447950800,1.242950927734375,0.0960772784858942,-0.7494411606650799,-0.5368273877061903
1788983110457909800,1.25290966796875,0.09363923768401146,-0.7100280186872929,-0.5765681542031467
1788983110467869700,1.26286962890625,0.014722352835536003,-0.704782007792592,-0.5553717465152964
1788983110477829600,1.27282958984375,-0.11435001727938651,-0.6727814070936292,-0.49545014258120207
1788983110487788800,1.282788818359375,-0.17816636362969873,-0.665739671888575,-0.43929596488922834
1788983110497748700,1.292748779296875,-0.21892741308510302,-0.6966731548126787,-0.39414490031395105
1788983110507708000,1.3027080078125,-0.2025152074664831,-0.7225996962949633,-0.3528502554384991
1788983110517667800,1.312667724609375,-0.25191373688578605,-0.7305408645577728,-0.2507542646523565
1788983110527627800,1.322627685546875,-0.4256827423393726,-0.5396845307029784,-0.11701969314636662
1788983110537586700,1.332586669921875,-0.655488107791543,-0.17528781251870096,-0.042693807616271076
1788983110547547000,1.342546875,-1.1224638145059347,0.14309424653090536,0.07019220152515918
1788983110557506800,1.3525068359375,-1.5584171909689903,0.40023214780576527,0.21589255716754122
1788983110567465700,1.3624658203125,-2.0148943000227213,0.6047375792413949,0.2619120203414932
1788983110577425700,1.37242578125,-2.477099139073491,0.6651035659421235,0.2508901111927815
1788983110587385600,1.382385498046875,-2.520971014025807,0.6597351707767695,0.1412509202191606
1788983110597344800,1.3923447265625,-2.1835124985843897,0.6404460945475846,0.06386051428560167
1788983110607304700,1.4023046875,-1.5026847823530434,0.5976302314542233,-0.012235486189555377
1788983110617263900,1.412263916015625,-0.8744535147994756,0.45669842365421354,-0.07924909421121701
1788983110627223800,1.422223876953125,-0.2742857276916504,0.2272881219342351,-0.0351049416561611
1788983110637183700,1.432183837890625,0.2692699453562498,0.0031070991698652502,0.03516511087818071
1788983110647143000,1.442142822265625,0.26465923669040203,0.04501812237799167,0.024581647945661096
1788983110657102800,1.452102783203125,1.3881062170147895,-0.08496654027625918,0.10043258761856705
1788983110667062800,1.462062744140625,1.7366309008717535,-0.25859986358620224,0.13438538183122872
1788983110677021700,1.472021728515625,1.952279146155715,-0.34554829839468,0.14839892881028352
1788983110686981600,1.481981689453125,2.1052216366797682,-0.3664887950927019,0.14120726374052464
1788983110696941800,1.49194189453125,2.1890403220951558,-0.3836370599009096,0.1380017456974834
1788983110706900700,1.501900634765625,2.251394779199362,-0.35726284771636124,0.14326204084586353
1788983110716860700,1.511860595703125,2.171814462006092,-0.2748271410919726,0.2036317538736388
1788983110726819800,1.52181982421875,1.8682751673012972,-0.17232494412511587,0.2520026572782546
1788983110736779800,1.53177978515625,1.4089321474224328,-0.05018529588282108,0.31628782671671357
1788983110746740000,1.541739990234375,1.064208024892211,0.11444251786842942,0.3561696091195568
1788983110756699000,1.551698974609375,0.5554208828866481,0.35715851055905223,0.4648093589933589
1788983110766658800,1.561658935546875,0.02609597976505756,0.5161932535436005,0.4691820211196318
1788983110776618800,1.57161865234375,-0.5562234314411878,0.6106828244466335,0.3965404536809772
1788983110786577700,1.58157763671875,-1.090092407733202,0.7064025216665119,0.34757783146090804
1788983110796537900,1.591537841796875,-1.4143822295218704,0.7250560034058988,0.3488393027640879
1788983110806496800,1.601496826171875,-1.5444138000577687,0.6124381436813623,0.3466312347931787
1788983110816456700,1.611456787109375,-1.4181249231815338,0.45357408108860253,0.4400733059372753
1788983110826416600,1.621416748046875,-1.0356652364969252,0.2554286131389439,0.4222019510189071
1788983110836375800,1.631375732421875,-0.5400719225853681,0.04843662558458745,0.2691626490568742
1788983110846335700,1.641335693359375,-0.060057286077737804,-0.16570552598536015,0.16525606518480926
1788983110856296000,1.6512958984375,0.48721536166667934,-0.37819172704182563,0.1470958103224635
1788983110866254800,1.6612548828125,0.969176456066966,-0.4966412155292928,0.15644954879693687
1788983110876214800,1.67121484375,1.2716899148553609,-0.5445666767213493,0.13050371809229255
1788983110886174700,1.6811748046875,1.3900982676148415,-0.5999944033022969,0.12492027367046102
1788983110896133600,1.691133544921875,1.3892448656558989,-0.5938982053190469,0.12111339220078661
1788983110906093800,1.70109375,1.241562487617135,-0.6440359357330948,0.038591285934578626
1788983110916052700,1.711052734375,1.146919041326642,-0.5908594221450388,0.06810063607338815
1788983110926012700,1.7210126953125,0.9808516962915659,-0.5340787465851754,0.08547945823445915
1788983110935972600,1.73097265625,0.7025614091336727,-0.4794684738669544,0.08492525841780006
1788983110945931800,1.740931884765625,0.43761400315165516,-0.43150976799242197,0.08591810538005083
1788983110955892000,1.75089208984375,0.23926468319296834,-0.42032099611051377,0.07981410768283531
1788983110965851600,1.7608515625,0.13748890080451964,-0.4244505701959133,0.11160157708777114
1788983110975810600,1.770810546875,0.07074468430876732,-0.4484772694062441,0.14522523067761212
1788983110985770500,1.7807705078125,0.11530687961280345,-0.4501957637619227,0.2370331978138536
1788983110995729400,1.7907294921875,0.12213351076245307,-0.5328181520648301,0.25801400825595483
1788983111005689600,1.800689697265625,0.01121112984418869,-0.6462754582881927,0.23464727079169823
1788983111015649500,1.8106494140625,0.028200843089818954,-0.6089202717535197,0.28679056887449694
1788983111025608400,1.8206083984375,0.09042670537829399,-0.5549750388152898,0.34495847927536816
1788983111035568400,1.830568359375,0.13848609514832497,-0.574854482153058,0.3667913582358509
1788983111045528300,1.8405283203125,0.17414836015999316,-0.5901096997562796,0.3802496824849397
1788983111055487700,1.85048779296875,0.13209434828460215,-0.5319265369873494,0.39340646650418637
1788983111065447700,1.86044775390625,-0.011270166555047034,-0.468165939412266,0.40359431771524246
1788983111075407600,1.87040771484375,-0.10971826582551002,-0.4053707528032362,0.4215883856978267
1788983111085366500,1.880366455078125,-0.25684593259096145,-0.30508433218970893,0.4629320573467761
1788983111095326500,1.890326416015625,-0.42388709109425543,-0.24358429995775221,0.5360829990796745
1788983111105285400,1.900285400390625,-0.6184586460798979,-0.17834544652365147,0.5677331789057701
1788983111115245600,1.91024560546875,-0.746962860918045,-0.13240166066810488,0.5849145057333633
1788983111125205500,1.92020556640625,-0.7567378204792737,-0.16130561052598058,0.5778440558904782
1788983111135164400,1.930164306640625,-0.6243751766473055,-0.23618973272703586,0.6161882169298827
1788983111145124400,1.940124267578125,-0.6274181976050138,-0.21313129402697084,0.6085268154565244
1788983111155084500,1.95008447265625,-0.13709551757276056,-0.4794258768342435,0.6019568624816835
1788983111165043700,1.960043701171875,0.10162497574090958,-0.5602874660097062,0.6355188672784715
1788983111175003600,1.970003662109375,0.314509017008543,-0.6757474903576076,0.6501217584528028
1788983111184962600,1.979962646484375,0.46139586075544353,-0.8384868600137532,0.6409450570456683
1788983111194922500,1.989922607421875,0.5438105245918036,-0.9229594792932272,0.5470708415620029
1788983111204882700,1.999882568359375,0.4286012601345777,-0.8258306459277868,0.37878304399847984
1788983111214841600,2.009841552734375,0.036755320945382114,-0.6704463152095675,0.2251461049368605
1788983111224801500,2.019801513671875,-0.41480186736285685,-0.4826267187021672,0.08114298166641964
1788983111234761500,2.029761474609375,-0.9463532143622636,-0.23675723041668534,-0.062317431295756245
1788983111244720400,2.039720458984375,-1.4349854570895433,-0.0382329922825098,-0.18562749329060316
1788983111254680600,2.0496806640625,-1.6071645630031823,0.1134527761787176,-0.1737105167319998
1788983111264639700,2.0596396484375,-1.7264350855499504,0.25249431325271726,-0.10786049999645911
1788983111274599700,2.069599609375,-1.9288018244564533,0.30678222214877604,-0.04479584879628382
1788983111284559600,2.0795595703125,-1.9129560205489395,0.3322026407398283,-0.014323096985416487
1788983111294518500,2.0895185546875,-1.520925372442603,0.3360727601714432,-0.008163930468284524
1788983111304478500,2.099478515625,-0.93009707608819,0.32777415677309035,0.0015949798571527935
1788983111314438700,2.109438720703125,-0.312289587393403,0.2688951206944883,0.006664312160830013
1788983111324397600,2.1193974609375,0.1585790351063013,0.18227920577600598,-0.03247134631613735
1788983111334357500,2.129357421875,0.4794616787999868,0.1480219852566719,-0.08896650576577521
1788983111344317400,2.1393173828125,0.7594663686603307,0.13060586329251528,-0.1400174055019859
1788983111354276400,2.1492763671875,1.0080845711320638,0.12102145786732435,-0.19898422032874077
1788983111364236500,2.159236572265625,1.2117068630576133,0.09257380040958524,-0.22290353190815074
1788983111374195500,2.169195556640625,1.4360948796361683,-0.0038094752855598922,-0.2032182229029946
1788983111384155400,2.1791552734375,1.7123773341029882,-0.13812909840419887,-0.1586209745518863
1788983111394115300,2.189115234375,2.0472347271353004,-0.2275818441838026,-0.1598727464449592
1788983111404074500,2.199074462890625,2.2218214787125588,-0.2594194363407791,-0.18575928471041842
1788983111414034700,2.20903466796875,2.2156547727763654,-0.2907728982426226,-0.2547988273354247
1788983111423994600,2.21899462890625,2.0491437756270168,-0.2795600148327648,-0.30900198055747896
1788983111433953500,2.22895361328125,1.5910826122522352,-0.17589052765220403,-0.37040194994844494
1788983111443913500,2.23891357421875,1.0430237825661897,-0.0000846095435321331,-0.4293984383942559
1788983111453873700,2.248873779296875,0.45039457426965235,0.34401129808574915,-0.41545919876042753
1788983111463832600,2.25883251953125,-0.3195329826503992,0.7940618812233209,-0.20723642730209976
1788983111473792500,2.26879248046875,-1.1457347999781369,1.1460311525762081,-0.0041254093669354916
1788983111483751400,2.27875146484375,-1.9262234984010458,1.3257602354779838,0.06395493283709511
1788983111493711400,2.28871142578125,-2.3353560879558324,1.321357762735337,0.04462185306940227
1788983111503671300,2.29867138671875,-2.2001018143355844,1.158485195153579,0.029222226593387312
1788983111513630700,2.308630615234375,-1.6659136890918016,0.971019526650384,0.047181492690648884
1788983111523590700,2.318590576171875,-0.8971639437794685,0.7941573044218122,-0.017327250662393635
1788983111533550600,2.328550537109375,-0.11943711128532886,0.46980157779008147,-0.06950988638338167
1788983111543509500,2.338509521484375,0.5657470465898513,0.1599434553273022,-0.0470051817090949
1788983111553469400,2.348469482421875,1.1002999134927987,-0.04831234161779284,-0.05312884765458293
1788983111563428400,2.358428466796875,1.5419517938584089,-0.27519275953397154,-0.09961977339833974
1788983111573388500,2.368388427734375,1.8206494927734136,-0.5006510356925428,-0.1628834543019533
1788983111583348500,2.378348388671875,1.971093152219057,-0.5937449144534767,-0.1877439191889949
1788983111593307400,2.388307373046875,1.9741016863852738,-0.6509028258278966,-0.20568145294506102
1788983111603267300,2.398267333984375,1.7855583056479691,-0.6757870917156338,-0.252267920618318
1788983111613227500,2.4082275390625,1.5141028329461812,-0.6445265687942504,-0.2831748808616772
1788983111623186700,2.418186767578125,1.1983791794508696,-0.6239908535048365,-0.305908160994295
1788983111633146600,2.428146728515625,0.9087105891883372,-0.567775775938481,-0.33275702321957795
1788983111643105500,2.43810546875,0.7396703658223152,-0.48793885363563894,-0.32323622108250855
1788983111653065500,2.4480654296875,0.637811581325531,-0.40972390651144086,-0.2794810861113481
1788983111663025700,2.458025634765625,0.49876025350987907,-0.3615010698080063,-0.25248406585333866
1788983111672984600,2.467984619140625,0.38113106842935085,-0.33534554187543686,-0.27121832121135664
1788983111682944500,2.477944580078125,0.25605565899610516,-0.3680691230867058,-0.3402623208157718
1788983111692904400,2.487904541015625,0.17307108631730078,-0.3909243673648685,-0.3823581260062754
1788983111702863400,2.49786328125,0.1125771623879671,-0.4427840262006968,-0.3928342561068013
1788983111712823600,2.507823486328125,0.17384382425546646,-0.5122931042999029,-0.3974702818769961
1788983111722783500,2.517783447265625,0.27397476204633714,-0.5776009313169866,-0.38803207998946304
1788983111732742700,2.52774267578125,0.3242641028255224,-0.6525966971989721,-0.3641915510009974
1788983111742702600,2.53770263671875,0.30060616386234756,-0.7136106994796544,-0.3483965274326503
1788983111752661500,2.54766162109375,0.26749533689916133,-0.8252192360311746,-0.38748175263032314
1788983111762621400,2.557621337890625,0.20442191787064073,-0.8754377765964716,-0.3893415186202153
1788983111772581600,2.56758154296875,0.07819441579282284,-0.9183226132728158,-0.36338717581555247
1788983111782540500,2.57754052734375,-0.01774666909277439,-0.9339105699617415,-0.3260234406482428
1788983111792500500,2.58750048828125,-0.04765490062236786,-0.9748493871368468,-0.3220814980894327
1788983111802460400,2.59746044921875,-0.040135026511549945,-1.0329735862601548,-0.34439346580374985
1788983111812419300,2.60741943359375,-0.016624387064576147,-1.0801686142858118,-0.35300621318519115
1788983111822379500,2.617379638671875,0.004138414978981018,-1.1060332695130257,-0.33870069752223786
1788983111832339500,2.62733935546875,0.014437690675258635,-1.0953054662063717,-0.359557753720507
1788983111842298600,2.637298583984375,-0.013940262547135353,-1.0580652112882585,-0.35152434059698134
1788983111852258600,2.647258544921875,-0.08705050694346428,-1.0277963297527284,-0.3467774017982185
1788983111862217500,2.657217529296875,-0.23319033171534537,-1.0091110646355896,-0.3464322416223585
1788983111872177700,2.667177734375,-0.3436146999835968,-1.0046242015451192,-0.331570736044459
1788983111882137600,2.6771376953125,-0.35825580427646636,-0.9847964883945882,-0.2862430727932602
1788983111892096500,2.687096435546875,-0.3946779477447271,-0.9908130452703684,-0.2525309189360589
1788983111902056400,2.697056396484375,-0.3813935187578201,-0.9882098770346492,-0.21074593326039612
1788983111912016600,2.7070166015625,-0.356212315750122,-0.9772606129970401,-0.16916585903968662
1788983111921975600,2.7169755859375,-0.3524333817332983,-0.9907407106865197,-0.14421277483259326
1788983111931935500,2.726935546875,-0.33060616532862186,-0.968484016823396,-0.1482225127974525
1788983111941894700,2.736894775390625,-0.4040197765856981,-0.9361982425075024,-0.16238856519078834
1788983111951854600,2.7468544921875,-0.5398948124527931,-0.898501183732599,-0.16085063330009577
1788983111961814500,2.756814453125,-0.5747299789905548,-0.9167557292822748,-0.14531497305398805
1788983111971773700,2.766773681640625,-0.6422212144613265,-0.8922157467875629,-0.1475364119631238
1788983111981733600,2.776733642578125,-0.6556663869678974,-0.9451628355339169,-0.13435568081270902
1788983111991693800,2.78669384765625,-0.5033107564210891,-1.2076100952632725,-0.08104363121148199
1788983112001652700,2.79665283203125,-0.33116321468949317,-1.3141323415264488,-0.035503475987073034
1788983112011612700,2.80661279296875,-0.36145489257872104,-1.009193993678689,0.0012293591318652034
1788983112021572600,2.816572509765625,-0.7062707850456237,-0.21629070790596305,0.03355442427853122
1788983112031531500,2.826531494140625,-1.5642629943877457,0.5963134497672319,0.026476028591208157
1788983112041491700,2.83649169921875,-2.3700977309912443,1.0625907258886844,0.081992894760333
1788983112051450600,2.84645068359375,-3.232995248031616,1.324791974967718,0.1358959325246513
1788983112061410600,2.85641064453125,-3.595511047840118,1.4045561242952942,0.07705982227232307
1788983112071370500,2.86637060546875,-3.366030092036724,1.3699191106781363,0.027081118344888088
1788983112081329700,2.87632958984375,-2.644425544258952,1.2990502154678105,-0.06174666393678635
1788983112091289900,2.886289794921875,-1.6526123089700937,1.233864480460435,-0.18448741987738757
1788983112101249800,2.896249755859375,-0.8575696000158787,0.9386120987161993,-0.30794951236248014
1788983112111208700,2.906208740234375,0.2080225727111101,0.41762189321964976,-0.29016194500373677
1788983112121168600,2.916168701171875,1.1196475880414247,0.13384959445409475,-0.19813164035370573
1788983112131127600,2.92612744140625,1.7615847248643635,0.06119111241325736,-0.10059371473072096
1788983112141087500,2.93608740234375,2.294906004145741,-0.0811477126404643,-0.011761292806547134
1788983112151047700,2.946047607421875,2.609536601707339,-0.13038527934439478,0.10347268596682697
1788983112161006600,2.956006591796875,2.7461031269699334,-0.2035575561262667,0.2911298401878215
1788983112170966500,2.965966552734375,2.6317916881352663,-0.22735461129918694,0.4982615832727402
1788983112180926500,2.975926513671875,2.2398557325750588,-0.15159750565588473,0.6025432840675116
1788983112190885600,2.9858857421875,1.7558996649652718,0.004597849184274673,0.6662725366562604
1788983112200845800,2.995845703125,1.3504378728777169,0.32368462243713436,0.700591643430665
1788983112210804700,3.0058046875,0.8015893541187048,0.696610537905246,0.7275526425272226
1788983112220764700,3.0157646484375,-0.09066752839684486,1.1501613111834972,0.5867419038236141
1788983112230724600,3.025724609375,-0.9736351890414953,1.1706800753381104,0.4954423976661637
1788983112240683500,3.03568359375,-1.7706436451107264,1.29857587595433,0.38370398765727876
1788983112250643700,3.045643798828125,-2.2527473628520966,1.4921071281068026,0.3049682863282971
1788983112260603600,3.055603759765625,-2.181090824395418,1.3564461733818054,0.2652218207429163
1788983112270562600,3.0655625,-1.7794371924191712,1.1147276672959328,0.15436486974367872
1788983112280522500,3.0755224609375,-1.2338982365995645,0.9197219586767256,0.010755120571842417
1788983112290482700,3.085482666015625,-0.6250526375174522,0.6950415350228548,-0.0751454034857452
1788983112300441900,3.09544189453125,0.19013971001803873,0.4204553630799055,-0.02323559449841268
1788983112310401800,3.10540185546875,0.9644652096360922,0.2044702870570123,0.15205304913735015
1788983112320360700,3.115360595703125,1.6042483832955359,0.03428871163614094,0.19223151293182744
1788983112330320600,3.125320556640625,2.0159867714345454,-0.16650617484375835,0.1793143646210432
1788983112340280600,3.135280517578125,2.20784965198338,-0.34247225195020436,0.174690686875768
1788983112350239700,3.14523974609375,2.212581356680393,-0.39034021080136294,0.1727976396707818
1788983112360199700,3.15519970703125,2.1009879446327684,-0.3716862906705588,0.25384099688762796
1788983112370159600,3.16515966796875,1.8451438825607298,-0.3569949174951762,0.30125542155131696
1788983112380118500,3.175118408203125,1.512806947916746,-0.30209647548533974,0.30160650001130995
1788983112390078500,3.185078369140625,1.1600292827904224,-0.25940847655534743,0.2554036613607779
1788983112400037600,3.19503759765625,0.9143044636726378,-0.22223602617643773,0.22724844751097262
1788983112409997800,3.204997802734375,0.698336484915018,-0.16922127902135253,0.20001962779108434
1788983112419957800,3.214957763671875,0.575870965719223,-0.14385419805273414,0.21740829549273474
1788983112429916700,3.224916748046875,0.5383037438690662,-0.17240137036219239,0.2555143369273282
1788983112439876600,3.234876708984375,0.5148661696583032,-0.23873927107937631,0.28589042343068866
1788983112449836800,3.2448369140625,0.5179284798383712,-0.27709121356643734,0.3092806148357689
1788983112459795700,3.254795654296875,0.5010714530616999,-0.3517408694244921,0.3537460717670619
1788983112469755600,3.264755615234375,0.5194821390211581,-0.38983459936678405,0.37003808507211505
1788983112479715600,3.274715576171875,0.5008282919555902,-0.4432891261786222,0.35220231292378157
1788983112489674500,3.284674560546875,0.40681086860895155,-0.48526766166500745,0.31957192642129956
1788983112499634700,3.294634765625,0.2284574579745531,-0.5058000890187919,0.29909585063094274
1788983112509593600,3.304593505859375,0.05125029476583004,-0.5259907902628183,0.2538574730983935
1788983112519553500,3.314553466796875,-0.17852292198240757,-0.4784082972895354,0.2342883560851216
1788983112529513500,3.324513427734375,-0.3832581435859203,-0.4732053218189627,0.23426272845352067
1788983112539472600,3.33447265625,-0.5249070866793394,-0.460667181154713,0.29185037301471456
1788983112549432800,3.344432861328125,-0.6358604472577571,-0.4179838583998382,0.3661105363648385
1788983112559392800,3.354392822265625,-0.7160346386909484,-0.374540364927426,0.38840493188984687
1788983112569351700,3.3643515625,-0.7325152333706617,-0.36281456355936825,0.4740847350019961
1788983112579311600,3.3743115234375,-0.7290969493597745,-0.3656524173337966,0.5134025633791461
1788983112589270500,3.3842705078125,-0.7454179695636034,-0.4153775483589619,0.5022521872788668
1788983112599230500,3.39423046875,-0.6492693794071674,-0.5226390686821192,0.456867715806514
1788983112609190700,3.404190673828125,-0.4623071303814649,-0.6349759195081889,0.40560598633121697
1788983112619149600,3.414149658203125,-0.2611573660492897,-0.6995743561469018,0.3411534609692171
1788983112629109500,3.424109619140625,-0.03863865047395229,-0.7365776605039834,0.27932213268997147
1788983112639069400,3.4340693359375,0.137225281432271,-0.7856982497647405,0.2094360562382266
1788983112649028600,3.444028564453125,0.3040601037085056,-0.9228735545754432,0.1285683478492312
1788983112658988800,3.45398876953125,0.662278498584032,-1.1989090485438705,0.09345532335131429
1788983112668948700,3.46394873046875,1.00262747476995,-1.2812478706650434,0.04325981203515548
1788983112678907600,3.47390771484375,0.8854472025007009,-1.0335327545128763,-0.02787038272616919
1788983112688867600,3.48386767578125,0.31998890972435473,-0.8116156580924987,0.021417315862956456
1788983112698826500,3.493826416015625,-0.37786885176301,-0.5994041092589497,-0.01958773951535113
1788983112708786700,3.50378662109375,-0.9545347672522068,-0.41530557910129423,-0.15684393667569382
1788983112718746600,3.51374658203125,-1.3346353235900401,-0.2601907129742205,-0.1631292822891846
1788983112728705500,3.52370556640625,-1.8316694839596748,0.1556288800638169,-0.1567252604657784
1788983112738665500,3.53366552734375,-2.255720825704932,0.5959516307175159,-0.1748514669280499
1788983112748625700,3.543625732421875,-2.8949919581890105,0.8020287684492766,-0.11870956419575959
1788983112758584800,3.553584716796875,-3.125658908906579,0.9198821907397359,-0.06107632692717015
1788983112768544800,3.563544677734375,-3.070672934743762,0.9298731311392039,-0.049362380393687635
1788983112778503700,3.573503662109375,-2.390903787654638,0.8672713482104242,-0.1371480332112871
1788983112788463600,3.583463623046875,-1.1965864508152007,0.7420886059451848,-0.05668660406824201
1788983112798423600,3.593423583984375,-0.09097264882326125,0.514424563370645,0.1363621161311399
1788983112808382700,3.6033828125,0.8586351834207773,0.14402254035696385,0.12760374973393043
1788983112818342700,3.6133427734375,1.770571164396405,-0.1981898916132748,0.0220794741326943
1788983112828302600,3.623302490234375,2.697326528841257,-0.3428520450480282,0.036141276133689094
1788983112838261500,3.633261474609375,3.2905952040851116,-0.34498452703207727,0.005985434510087361
1788983112848221400,3.643221435546875,3.4767321082025764,-0.24884499696493148,-0.03966377400429919
1788983112858181600,3.653181640625,3.067649787530303,-0.15424085977151988,-0.13437887902520596
1788983112868140800,3.663140869140625,2.197829193228483,-0.08005246474966406,-0.20844898142963647
1788983112878100700,3.673100830078125,1.3446154503345489,0.08120806452557444,-0.3993730102257803
1788983112888059600,3.6830595703125,0.6881926920413971,0.3041739393465221,-0.6153932671599089
1788983112898019600,3.69301953125,0.13295651807188988,0.6114737556286156,-0.4197100976705551
1788983112907979800,3.702979736328125,-0.2815215241640806,0.7824015463069081,-0.2802219858728349
1788983112917938700,3.712938720703125,-0.8713117096424102,0.9478194875225424,-0.11738640756690874
1788983112927898600,3.722898681640625,-1.4154583343207836,1.0929334033127873,0.01577480276422575
1788983112937858600,3.732858642578125,-1.9439315890491007,1.1415839639090002,0.028209117727819828
1788983112947817500,3.7428173828125,-2.0849697067677972,1.0936159056842327,-0.026181082498934118
1788983112957777700,3.752777587890625,-1.8548422697544096,0.9767840084612369,-0.11407120033800601
1788983112967736000,3.762736083984375,-1.1759317853212357,0.8596459678985178,-0.13280347380149177
1788983112977696000,3.772696044921875,-0.2692524096995592,0.6677396135341376,-0.09248083402966148
1788983112987656000,3.782656005859375,0.5882318501204252,0.41831447859369214,-0.0166322552772006
1788983112997614800,3.79261474609375,1.2107482471585274,0.20295337968803942,0.06386791214076802
1788983113007575000,3.802574951171875,1.68327983443439,0.050061596437916155,0.045556261542416175
1788983113017535000,3.812534912109375,2.053780203256011,-0.1592731548503041,0.011350731252768309
1788983113027494000,3.822493896484375,2.242341704171896,-0.3463002858057618,0.05708388259040657
1788983113037453800,3.832453857421875,2.2065081742465495,-0.37369317351356146,0.1749630558100529
1788983113047413000,3.8424130859375,2.0156641153514383,-0.42725539848357436,0.23559819657467304
1788983113057373000,3.852373046875,1.6772382161825894,-0.46188817431703205,0.25007764403242616
1788983113067332900,3.862332763671875,1.2602531595617532,-0.4443630390204489,0.25083558626025915
1788983113077292000,3.8722919921875,1.00796123701334,-0.43844022484272716,0.22501898969216272
1788983113087252000,3.882251953125,0.8293471296161413,-0.42905755253471434,0.1948616970386356
1788983113097212000,3.8922119140625,0.6927858650505543,-0.4007149628866464,0.12960547234462574
1788983113107170800,3.9021708984375,0.6290402458488941,-0.41672457905374466,0.0762894772206433
1788983113117131000,3.912131103515625,0.6352548825800418,-0.4770712034668773,0.03896167188324034
1788983113127091000,3.922091064453125,0.6095867728382348,-0.4830436289399862,-0.014460276966402306
1788983113137049900,3.9320498046875,0.49771922002434726,-0.457305084310472,-0.07606723103839903
1788983113147009800,3.942009765625,0.4236217181563377,-0.490503151165694,-0.146456215510983
1788983113156969000,3.951968994140625,0.2509177115857601,-0.49720922467559575,-0.17259307527570053
1788983113166929000,3.961928955078125,0.14751812738776207,-0.5163715327199548,-0.21625919852284714
1788983113176888800,3.971888916015625,0.11057575943768023,-0.6082300975322723,-0.25463972778357563
1788983113186848000,3.981847900390625,0.12108604753613471,-0.6377037370368838,-0.33484782148636877
1788983113196808000,3.991807861328125,0.14044248991310596,-0.6737082396149635,-0.41461226307488974
1788983113206768000,4.00176806640625,0.11180091731846332,-0.700592666343972,-0.5000034585040062
1788983113216727000,4.01172705078125,0.057961190581321716,-0.7201159897204488,-0.5460461746893823
1788983113226687000,4.02168701171875,-0.03264788562655449,-0.7109275248102843,-0.5872893816385418
1788983113236646000,4.03164599609375,-0.08314180906713009,-0.6984520010534674,-0.5937266116118058
1788983113246605800,4.041605712890625,-0.0847749632269144,-0.675808645960316,-0.6457299532346427
1788983113256566000,4.05156591796875,-0.09508709840476512,-0.6528577592879533,-0.705007633242011
1788983113266525000,4.06152490234375,-0.12317746685743332,-0.6537186139009893,-0.8223165733922272
1788983113276484900,4.07148486328125,-0.10311842916905879,-0.6222507318392395,-0.9327483943145721
1788983113286444800,4.08144482421875,-0.16578268287479878,-0.5878939234029501,-1.0116450400926171
1788983113296404000,4.091404052734375,-0.2608949157208204,-0.5317622132711112,-1.0529542980153113
1788983113306364000,4.101364013671875,-0.3933464068800211,-0.48808885656557977,-1.0839149612072854
1788983113316323000,4.111322998046875,-0.5327963786244392,-0.4275958824843168,-1.093866957835853
1788983113326283000,4.121282958984375,-0.6724713912963867,-0.40649011222198606,-1.0677888059884308
1788983113336243000,4.131242919921875,-0.8124193756908178,-0.39737230139523744,-1.0019851582784205
1788983113346201900,4.141201904296875,-0.8235825747400521,-0.39690804488435383,-0.8550956111177802
1788983113356161800,4.151161865234375,-0.7364478966444731,-0.4716569963984191,-0.697487393805012
1788983113366122000,4.1611220703125,-0.4702694875627756,-0.6826786047950386,-0.609130042046681
1788983113376081000,4.171080810546875,-0.004388005825877189,-0.9902591377146541,-0.531248491595313
1788983113386040800,4.181040771484375,0.3113110977500677,-1.1277236347302795,-0.42280378936957563
1788983113396000800,4.191000732421875,0.23563421773612497,-0.97345384112522,-0.28879708639131857
1788983113405960000,4.2009599609375,-0.09751403329074382,-0.20123846552893518,-0.31562461356762794
1788983113415920000,4.210920166015625,-1.1655483384728431,0.7841404989287257,-0.5507337479837239
1788983113425879000,4.220879150390625,-2.53316297160089,1.3638159714974463,-0.7868212624453008
1788983113435839000,4.2308388671875,-3.858898949420452,1.6616726905211805,-0.7072305699884891
1788983113445799000,4.240798828125,-4.869553663301468,1.9768536154419183,-0.3961521119505167
1788983113455757800,4.2507578125,-5.121802915751934,2.0704643576838073,-0.15185122468862683
1788983113465718000,4.260718017578125,-4.724099482706189,2.083294613162428,-0.0223096661593765
1788983113475678000,4.270677978515625,-3.324837080904841,1.9382544201955199,-0.04809705489929765
1788983113485636900,4.280636962890625,-1.3980799140185116,1.4580100665852427,-0.04402721164450049
1788983113495596800,4.2905966796875,-0.09265840995311736,0.929738691104576,-0.08372497924994676
1788983113505556000,4.300555908203125,1.1434317837327719,0.5630161603212356,-0.2520338561341166
1788983113515516200,4.31051611328125,2.1287521498709916,0.3658753393694758,-0.4470944002131
1788983113525476000,4.32047607421875,2.5387235283374783,0.3827709445908665,-0.6712114543631672
1788983113535435000,4.33043505859375,2.466908584448695,0.42175621654540296,-0.7909159844130277
1788983113545395000,4.34039501953125,1.9296932203382253,0.45659854347631335,-0.8425733986750245
1788983113555355000,4.35035498046875,1.2464736405342816,0.5850760164380073,-0.9681788963969796
1788983113565313800,4.360313720703125,0.5557815328925848,0.7515830680646002,-1.2295515856973827
1788983113575274000,4.37027392578125,-0.15561609364748,0.8773821155972779,-1.295108784365654
1788983113585234000,4.38023388671875,-0.6415636273354292,0.9919410263869911,-1.321007780253887
1788983113595192800,4.39019287109375,-0.7424404150575399,0.9644592182867229,-1.341000766968727
1788983113605152800,4.40015283203125,-0.6301958456248045,1.0217088995978236,-1.3964151956766844
1788983113615112000,4.41011181640625,-0.34536300495564937,1.1138827409043908,-1.4639993701279161
1788983113625072000,4.420072021484375,-0.038380876320600506,1.1286064089141785,-1.5299698257721959
1788983113635032000,4.430031982421875,0.24566052170991895,1.0525965706188232,-1.642602079348266
1788983113644991000,4.439990966796875,0.242404150262475,1.0718545941226183,-1.6561936745882033
1788983113654951000,4.449950927734375,0.6342658715426921,0.8958866173200308,-1.7627980461768804
1788983113664911000,4.4599111328125,0.873458658543229,0.8629714590594172,-1.7472678840897977
1788983113674870000,4.4698701171875,1.0600970824420453,0.787070853292197,-1.6843492172315715
1788983113684830000,4.479829833984375,1.1826444347023963,0.719274935786426,-1.6702423659458756
1788983113694788900,4.489788818359375,1.1856266653835772,0.6848160552151501,-1.6202677902042866
1788983113704748800,4.499748779296875,1.1093611718267202,0.7002374962307513,-1.571131126591563
1788983113714709000,4.509708984375,0.9754933841288089,0.7372092364057898,-1.5197154121309517
1788983113724668000,4.51966796875,0.8162462405025959,0.7604534800015389,-1.4915084315612912
1788983113734627800,4.5296279296875,0.5673007057726382,0.733652420707047,-1.4681684725061057
1788983113744587800,4.539587890625,0.25266893916726113,0.699685999827832,-1.4462214291140436
1788983113754547000,4.549546875,-0.08849310696721076,0.7205533582244068,-1.4442992288798093
1788983113764507000,4.5595068359375,-0.3376438088804483,0.7310635001923889,-1.4179536582678556
1788983113774466000,4.569466064453125,-0.48088908125460145,0.8181907986991107,-1.3049208610668777
1788983113784426000,4.579426025390625,-0.43154140523970125,0.859259964255616,-1.249055765981972
1788983113794386000,4.589385986328125,-0.33987434441149234,0.8337458029665052,-1.2072324210572987
1788983113804344800,4.5993447265625,-0.25413725815415383,0.8966275718804448,-1.1154394688270985
1788983113814304800,4.6093046875,-0.1440004746556282,0.9818697872929274,-1.0029607983775437
1788983113824265000,4.619264892578125,-0.13695406327545642,1.041330495717004,-0.884773175696656
1788983113834223900,4.629223876953125,-0.045938744354248044,1.0898277654476463,-0.7908486913304775
1788983113844183800,4.639183837890625,0.14882628737688064,0.951080242884159,-0.6443379874195904
1788983113854143700,4.649143798828125,0.2939922986805439,0.7795466683324426,-0.45977680818624794
1788983113864103000,4.65910302734375,0.34996903744637964,0.68624528430067,-0.31250505677498874
1788983113874063000,4.66906298828125,0.33091946906149383,0.6256363556895405,-0.24646496996060013
1788983113884022000,4.67902197265625,0.23306056785583495,0.6162978878494352,-0.26818726468607784
1788983113893982000,4.68898193359375,0.23619769683778286,0.619334844392538,-0.23197562216334044
1788983113903942000,4.69894189453125,0.013572598278522491,0.6897167598035187,-0.26720292982384564
1788983113913900800,4.70890087890625,-0.13734160128831863,0.7871983521293848,-0.31852892017439005
1788983113923861000,4.718861083984375,-0.2951040593147278,0.8804190721403807,-0.410308282270655
1788983113933821000,4.728821044921875,-0.4731166936874389,0.9845269507382064,-0.4605793567407876
1788983113943779800,4.73877978515625,-0.6200146433502435,1.1257364795010536,-0.5196363066695631
1788983113953739800,4.74873974609375,-0.6611059476733208,1.1651415843028574,-0.5307113890439271
1788983113963699200,4.75869921875,-0.4465665404140949,0.9320561742667108,-0.4152465058578178
1788983113973659100,4.7686591796875,0.1537128903746605,0.3723208622470498,-0.294722914510034
1788983113983619000,4.778619140625,1.1573287916600703,-0.07537935837209224,-0.2904051243761554
1788983113993578000,4.788577880859375,1.7176456298947334,-0.05062105695158243,-0.3620485110903159
1788983114003538200,4.7985380859375,1.4958178191930054,0.5315286967761814,-0.4007894528949633
1788983114013498000,4.808498046875,0.7821165918856858,1.292810005903989,-0.46912703952938317
1788983114023457000,4.81845703125,-0.5371843844503164,1.777766336597502,-0.6351598247077316
1788983114033417000,4.8284169921875,-1.459850433754921,2.055576877414435,-0.7915983406540006
1788983114043375900,4.8383759765625,-1.8888672889530658,2.117799963223934,-0.9187925688721239
1788983114053335800,4.848335693359375,-2.2137609218537806,1.937244950892031,-1.1045044525105505
1788983114063296000,4.8582958984375,-2.473486209273338,1.9995982389524578,-1.164978868021816
1788983114073255200,4.868255126953125,-2.5693559824883936,2.217672103948146,-1.1083378931935877
1788983114083215000,4.878215087890625,-2.538269354829192,2.210077118774503,-1.0095756864726544
1788983114093175000,4.888175048828125,-2.175495780867338,2.0086422538906334,-0.8752645389214158
1788983114103134000,4.898134033203125,-1.656746047773957,1.8662334323406218,-0.692317224625498
1788983114113094100,4.90809423828125,-1.1919231351792812,1.7449293581396341,-0.5958238396193832
1788983114123054000,4.91805419921875,-0.7478215235739946,1.6100553160086273,-0.5793704252075403
1788983114133013000,4.928012939453125,-0.2884013468056917,1.5325876070551574,-0.5254495960582047
1788983114142973000,4.937972900390625,-0.29022388605773447,1.546142231285572,-0.5539410195924341
1788983114152931800,4.947931884765625,0.4401578424155712,1.267457245721668,-0.27366743139652533
1788983114162892000,4.95789208984375,0.8803601084947585,1.0235114189751446,-0.012204122936911881
1788983114172852000,4.96785205078125,1.3159680325210095,0.7773743657946586,0.22811081822765988
1788983114182811100,4.97781103515625,1.7226567360550165,0.5051483471117914,0.3585295797165483
1788983114192771000,4.98777099609375,1.9859429308265446,0.22857143974304198,0.36596469815336163
1788983114202731000,4.99773095703125,2.139064285048842,0.07677271242663264,0.37275603879392144
1788983114212690200,5.007690185546875,2.104679200366139,0.022223814506828785,0.374996109338291
1788983114222650000,5.017650146484375,1.816262071469426,-0.006390285558998584,0.385669479043968
1788983114232609000,5.027609130859375,1.4005769915312527,-0.07704641480147838,0.4088891727203503
1788983114242569000,5.03756884765625,1.0934557466864585,-0.12131342655122279,0.42991584986448284
1788983114252529000,5.04752880859375,0.9373270273417234,-0.17913564705327154,0.4346807261787355
1788983114262488000,5.057488037109375,0.8204249874919652,-0.20237185347303746,0.36527397594284267
1788983114272448000,5.067447998046875,0.7282447164446115,-0.20500790106505154,0.3166307949354872
1788983114282408000,5.077407958984375,0.7274614571124315,-0.19765870734602212,0.2673600931469351
1788983114292367000,5.0873671875,0.7590069344550371,-0.18004983928874133,0.264982915686816
1788983114302327000,5.0973271484375,0.6280056421041488,-0.10629223689958453,0.2364004163356498
1788983114312286000,5.107285888671875,0.4781944353431463,-0.04389072578325867,0.20380353024397044
1788983114322246100,5.11724609375,0.33325171140134335,-0.03386427567899227,0.15004116132566706
1788983114332206000,5.1272060546875,0.14627192671895026,-0.05272051344886422,0.13328021533461287
1788983114342165000,5.1371650390625,0.007874678897857666,-0.08096724150702357,0.12164026561910286
1788983114352125000,5.147125,-0.13713468053936959,-0.10158888151422142,0.08767742493646219
1788983114362085000,5.157085205078125,-0.2957651535719633,-0.13839564038589597,0.034316483275766946
1788983114372044000,5.1670439453125,-0.38504210439324377,-0.2027021814059466,0.05521619358896278
1788983114382004000,5.17700390625,-0.3268284003555775,-0.24554281361438332,0.10747979358318262
1788983114391964000,5.1869638671875,-0.32606267668008804,-0.2517771048940718,0.10498778497120365
1788983114401922800,5.1969228515625,-0.08584872993826866,-0.40808351889327166,0.05746751617970876
1788983114411883000,5.206883056640625,0.0050672202616930005,-0.481967816402018,0.025077290542074478
1788983114421842200,5.21684228515625,0.07791852146089076,-0.5575205585796386,0.00894495217760559
1788983114431802000,5.226802001953125,0.18467092321813106,-0.6176823279451579,0.04038475435576402
1788983114441762000,5.236761962890625,0.3066325845450163,-0.700987730076164,0.026211299540684557
1788983114451721000,5.246720947265625,0.4147720567464828,-0.781242950856313,-0.05289373742418829
1788983114461681200,5.25668115234375,0.5358855768114328,-0.8225174297265708,-0.062121305935457345
1788983114471641000,5.26664111328125,0.6029015959858894,-0.8757621862452477,-0.07125080263342243
1788983114481600000,5.27660009765625,0.6559831978321075,-0.945365956890583,-0.12154881534283049
1788983114491560000,5.286559814453125,0.6962129168897867,-1.0128852494120597,-0.16309958127066493
1788983114501518800,5.296518798828125,0.6803554225444793,-1.024635454569012,-0.20997867521494626
1788983114511478800,5.306478759765625,0.6041729310959577,-1.004161844730377,-0.2372127921644598
1788983114521439000,5.31643896484375,0.48885845269858835,-0.980043887040019,-0.2813745899740606
1788983114531398100,5.326398193359375,0.34364275703430175,-0.9502922343116254,-0.3471459428496659
1788983114541358000,5.336358154296875,0.1900023473739624,-0.9315692675326019,-0.3663253116266802
1788983114551318000,5.346318115234375,-0.012363807010650634,-0.9139674868032336,-0.4061214250400662
1788983114561277000,5.35627685546875,-0.17975275603830812,-0.8912582999322562,-0.41510059458110476
1788983114571237000,5.366237060546875,-0.3082569708764553,-0.8734835007235408,-0.3926224399870261
1788983114581197000,5.376197021484375,-0.3557587267637253,-0.8667616451226174,-0.37350229058396067
1788983114591156000,5.386156005859375,-0.372732657918334,-0.8850780769273638,-0.32236013236772265
1788983114601116000,5.396115966796875,-0.33267712638378144,-0.9258638954978435,-0.27477025980558245
1788983114611074800,5.40607470703125,-0.28000819699168206,-0.989451912984997,-0.2397008643868379
1788983114621035000,5.416034912109375,-0.2631792272657156,-0.995980291840434,-0.22833419692106544
1788983114630995000,5.425994873046875,-0.14281798687279224,-1.0437870950888841,-0.18286036666482686
1788983114640954000,5.4359541015625,-0.14388532384335995,-1.0364658853553235,-0.19312745712455362
1788983114650914000,5.4459140625,-0.23529694860577582,-1.0433093215093017,-0.15665688967099411
1788983114660874200,5.455874267578125,-0.2854617862224579,-1.0732181375607848,-0.22664313856158405
1788983114670833200,5.465833251953125,-0.2841156323105097,-1.059918218743801,-0.20751833124971017
1788983114680793000,5.47579296875,-0.2636322317302227,-1.067576770672947,-0.21475093111805615
1788983114690752000,5.485751953125,-0.2066279034823179,-1.0845023326411842,-0.31898378780242054
1788983114700712000,5.4957119140625,-0.11472001963555813,-1.0606849653325974,-0.3978000983532518
1788983114710672000,5.505671875,0.026795652467012404,-1.0306716659933328,-0.5116645971380174
1788983114720631000,5.515631103515625,0.09469079256355761,-1.0285277858324349,-0.6406130486123264
1788983114730591000,5.525591064453125,0.1367547413110733,-1.0193053455874324,-0.7339465813480317
1788983114740551000,5.535551025390625,0.2544932319849729,-1.0624961064077914,-0.7804955665551125
1788983114750510000,5.545510009765625,0.4410317026406526,-1.2094102765530348,-0.8062985547229647
1788983114760470000,5.555469970703125,0.681999098098278,-1.3401178466543555,-0.7935784085553139
1788983114770429200,5.56542919921875,0.7997253138124942,-1.4006846896894276,-0.7880192400582134
1788983114780389000,5.57538916015625,0.5508633657127618,-1.3828060647800564,-0.767882607088983
1788983114790349000,5.58534912109375,0.10139467411637305,-1.0038381657339632,-0.7915412767045199
1788983114800308000,5.595307861328125,-0.4359878632545471,-0.19911986593976616,-0.9577027297638356
1788983114810268000,5.605267822265625,-1.3999866244226693,0.4538350701123476,-0.8772340854287147
1788983114820228000,5.61522802734375,-2.4249784912139174,0.9826181214421987,-0.6331915203094483
1788983114830187000,5.62518701171875,-3.507718198096752,1.3750532586961983,-0.37693946195840833
1788983114840147000,5.63514697265625,-4.108306256443262,1.4674921806797385,-0.2969548748131841
1788983114850107000,5.64510693359375,-3.9254672248274085,1.3303656834468245,-0.3143422821395099
1788983114860066000,5.655066162109375,-2.8806776016324758,1.196945201124996,-0.44673561337068673
1788983114870026000,5.66502587890625,-1.454053730174899,0.8750644863046705,-0.6635058484219014
1788983114879985200,5.674985107421875,-0.2077080999344587,0.4357345460806042,-0.7843730655755847
1788983114889945000,5.684945068359375,-0.2207891153037548,0.5399154168494046,-0.7711347407527267
1788983114899905000,5.694905029296875,2.075833045110106,-0.22863208388909695,-0.8205237716913223
1788983114909864000,5.704864013671875,2.7269325625538823,-0.09271408566311001,-0.7959657420832663
1788983114919824100,5.71482421875,3.0053222184330224,-0.03217997585386038,-0.7812206659592688
1788983114929784000,5.7247841796875,2.725866394627094,-0.02157806394919753,-0.7445157600268721
1788983114939743000,5.734742919921875,2.1860528307169673,0.09485489708408713,-0.6909890447616577
1788983114949703000,5.744702880859375,1.6615747831046581,0.28630934296250343,-0.653734834383428
1788983114959662000,5.754662109375,0.813245305120945,0.6278660875029861,-0.8030573077794164
1788983114969621800,5.764621826171875,-0.1700508617132902,0.9067774291686713,-1.0312599872753023
1788983114979582000,5.77458203125,-0.9032979164898395,1.0707361114867031,-1.071293014717102
1788983114989540900,5.784540771484375,-1.4454624274402856,1.253768765978515,-1.0538505892679095
1788983114999500800,5.794500732421875,-1.8313573492705821,1.4576619837999343,-1.0501507118366658
1788983115009460700,5.804460693359375,-1.9805267509967088,1.5336283482797444,-1.1084584508333355
1788983115019419600,5.814419677734375,-1.851048138168454,1.4100281259655951,-1.3142067219369113
1788983115029379800,5.8243798828125,-1.503881298661232,1.1999072658009826,-1.5599487844504416
1788983115039338800,5.8343388671875,-1.035389926686883,1.0021310695551335,-1.6546723102398215
1788983115049298700,5.844298583984375,-0.4501017288029194,0.8898509904175996,-1.6869728437334297
1788983115059258600,5.854258544921875,0.13390753518640994,0.7671618915989995,-1.703177544081211
1788983115069217800,5.8642177734375,0.6114876380234956,0.61295303440094,-1.6252036391712725
1788983115079178000,5.874177978515625,0.9808394213318824,0.4881371526867151,-1.5650895083397627
1788983115089138000,5.884137939453125,1.2472259202063083,0.38681203667521474,-1.5337809084929526
1788983115099096800,5.894096923828125,1.3958353499621152,0.31011575048565865,-1.515125892383605
1788983115109056800,5.904056884765625,1.5340911434859037,0.28154972734525796,-1.4816495931088924
1788983115119017000,5.914016845703125,1.5903180576205254,0.22769173429906367,-1.4008436796434223
1788983115128976000,5.923975830078125,1.513112652865052,0.25139789631813764,-1.2536018849790096
1788983115138935800,5.933935791015625,1.33252812217772,0.28622312598377464,-1.1114524450175463
1788983115148894700,5.943894775390625,1.035369468420744,0.2945473022148013,-0.980854545835778
1788983115158854700,5.953854736328125,0.789136115258932,0.35640579249560833,-0.870430981285125
1788983115168814600,5.963814697265625,0.5536562113016843,0.4222156507506966,-0.8099252938527614
1788983115178773800,5.973773681640625,0.39101708714962,0.44678588225319976,-0.752626878029108
1788983115188733700,5.983733642578125,0.26456980484127995,0.4983544491879642,-0.65408554751724
1788983115198693600,5.993693603515625,0.16975158650577069,0.4896541331209242,-0.5850747012637555
1788983115208652800,6.00365283203125,0.06945055284500122,0.4980005211837589,-0.5061930338591337
1788983115218612700,6.01361279296875,0.026025252616405484,0.5038187059432268,-0.46995545317754145
1788983115228571600,6.023571533203125,-0.0717605833530426,0.5274119091071188,-0.44576567235998804
1788983115238531800,6.03353173828125,-0.08767536084353923,0.5159614175491035,-0.4446193518690765
1788983115248491800,6.04349169921875,-0.10977496444880962,0.4908658469982445,-0.4698376720167696
1788983115258450700,6.05345068359375,-0.1096148054510355,0.46165363490879535,-0.5200065282214432
1788983115268410600,6.06341064453125,-0.08084171543121338,0.4405845433950424,-0.5628013119941577
1788983115278370800,6.073370849609375,-0.06955518226325512,0.40935456174239515,-0.587097804589197
1788983115288329700,6.083329833984375,-0.04860182608366012,0.3761751995876431,-0.5733459042210132
1788983115298289700,6.09328955078125,-0.1014098716855049,0.3895370777249336,-0.5267776297915726
1788983115308248800,6.103248779296875,-0.25244039110839367,0.4258258040718734,-0.4897924456130713
1788983115318208800,6.113208740234375,-0.4474152661979198,0.4405161543339491,-0.5124371158804745
1788983115328169000,6.1231689453125,-0.6313245573937892,0.47081674618199465,-0.5004898537814617
1788983115338128000,6.1331279296875,-0.6795043586730957,0.5500991033419966,-0.4583629228003323
1788983115348087800,6.143087890625,-0.668947893345356,0.578899665890634,-0.4171497821958735
1788983115358047700,6.1530478515625,-0.593722848752141,0.5587738465763629,-0.4022478350097313
1788983115368006700,6.163006591796875,-0.44734044739603995,0.5748502443693578,-0.38428978818859905
1788983115377966800,6.172966796875,-0.3000800941616297,0.6291248553924262,-0.36265129928905515
1788983115387926800,6.1829267578125,-0.08213760046064854,0.6075719258844852,-0.37833310827389355
1788983115397885700,6.1928857421875,0.18550269786715506,0.5276005635470151,-0.36676717364266515
1788983115407845600,6.202845703125,0.4244850569874048,0.3039526978112757,-0.3301355521421879
1788983115417804800,6.2128046875,0.8386194003522396,-0.12449980150237679,-0.2427373825385235
1788983115427764700,6.2227646484375,1.2596271366178988,-0.3408409974865615,-0.1736027637748979
1788983115437725000,6.232724853515625,1.6463105784773826,0.15488500289395452,-0.18840464812004937
1788983115447683800,6.242683837890625,1.1532049897283314,1.2887886414334178,-0.34163850453980266
1788983115457643800,6.252643798828125,-0.40559564760029315,2.205809670588374,-0.5786044092711061
1788983115467603700,6.262603759765625,-2.012757287994027,2.5311197753354904,-0.6103893213927746
1788983115477562600,6.272562744140625,-2.953037319922447,2.6565526199042795,-0.5858663630980998
1788983115487522800,6.282522705078125,-3.651785892769694,2.7599358374893663,-0.7275028120361268
1788983115497481700,6.292481689453125,-3.9328865611732002,2.711498554317653,-1.0370056182552128
1788983115507441700,6.302441650390625,-3.686680096018314,2.731718920047581,-1.3260291155472397
1788983115517401600,6.312401611328125,-3.2944664925605056,2.604357737764716,-1.477996623559296
1788983115527360800,6.32236083984375,-2.76229789044559,2.3157933093518017,-1.412961841329932
1788983115537321000,6.332321044921875,-1.8843676394462585,1.966929456668347,-1.12087771435827
1788983115547281000,6.342281005859375,-1.048178096589446,1.7151400768145917,-0.9411223279714583
1788983115557239800,6.35223974609375,-0.16490005482137202,1.565550549980253,-0.8938687746915965
1788983115567199700,6.36219970703125,0.5966629938572645,1.3783346184544265,-0.822413530960679
1788983115577158700,6.37215869140625,1.1158178006201982,1.1697700478211044,-0.7795722411651164
1788983115587118800,6.382118896484375,1.631307655134797,0.9415154189422726,-0.687988913097605
1788983115597078800,6.392078857421875,1.9470517668962477,0.7820166386425494,-0.48142921601329
1788983115607037700,6.40203759765625,2.0551807177037,0.697144644781947,-0.3086842929104343
1788983115616997600,6.41199755859375,1.8994214161932468,0.48386882771775125,-0.20671430312413722
1788983115626957600,6.42195751953125,1.7429466598898171,0.31233371879607436,-0.10286688382709398
1788983115636917000,6.4319169921875,1.4152256946086883,0.25672654399499295,-0.09834491289062425
1788983115646877000,6.441876953125,0.9628379006952047,0.22853359195068476,-0.10119220121367833
1788983115656835800,6.4518359375,0.5559948833823204,0.248375918148458,-0.0822824248919729
1788983115666795800,6.461795654296875,0.14157178620398045,0.2975669422969222,-0.007805769246956333
1788983115676755700,6.471755615234375,-0.1182148760139942,0.3097768739201128,0.15736423422275111
1788983115686714600,6.481714599609375,-0.27960370784401894,0.3204064044840634,0.30087761948117986
1788983115696674800,6.4916748046875,-0.24073709383308886,0.3722432669661939,0.34352698516752567
1788983115706634800,6.501634765625,-0.10880056645870208,0.40045112431868907,0.33342261098884046
1788983115716593700,6.51159375,0.08567045076191425,0.31970483208596706,0.3280937441162765
1788983115726553600,6.5215537109375,0.3091092037916183,0.1950925101198256,0.29463132723644375
1788983115736513800,6.531513671875,0.5832371105730533,0.13908669138997792,0.2162229033667594
1788983115746473000,6.541472900390625,0.8382248480767012,0.03957052449658513,0.18079808210646733
1788983115756433000,6.551432861328125,0.957564928728342,0.010341069011390208,0.1385995471938513
1788983115766391800,6.561391845703125,0.9912287133991717,-0.02035743611305952,0.11597825780203565
1788983115776351700,6.571351806640625,0.8956278202533722,-0.06729089059308171,0.056305934187583624
1788983115786312000,6.58131201171875,0.771379509294033,-0.08632935306206345,-0.0451428630025126
1788983115796270800,6.591270751953125,0.5221376219660043,-0.08700286840945481,-0.15230253038639202
1788983115806230800,6.601230712890625,0.30346622946858404,-0.14484218617677688,-0.28062453879173843
1788983115816190700,6.611190673828125,0.1930693337291479,-0.13852058193981648,-0.3910404314925894
1788983115826149600,6.621149658203125,0.1332984633773565,-0.16839578798264265,-0.3962670800996944
1788983115836109800,6.63110986328125,0.1261935998082161,-0.21104645057693122,-0.39501507074460385
1788983115846068700,6.64106884765625,0.17398294046521187,-0.2631143453359604,-0.44893973581884056
1788983115856028700,6.651028564453125,0.24613982965946196,-0.3171210992030799,-0.5022120379315689
1788983115865988600,6.660988525390625,0.4017676137447357,-0.3390807098157704,-0.5377885608885437
1788983115875947800,6.67094775390625,0.49393911696374415,-0.2813134343713522,-0.5257641419000924
1788983115885907700,6.68090771484375,0.5627063637197017,-0.32709172746688125,-0.5052774168515578
1788983115895868000,6.690867919921875,0.6279010126858949,-0.39416722174361346,-0.39991204900592564
1788983115905826800,6.700826904296875,0.6560322976708411,-0.3976240841992199,-0.29849203951889647
1788983115915786800,6.710786865234375,0.6735960114121436,-0.3999380602300167,-0.22020519620226695
1788983115925746700,6.72074658203125,0.7060369762897492,-0.43781653998643155,-0.11513281995384021
1788983115935705600,6.73070556640625,0.7238736617535352,-0.4620648460581898,-0.000681205463502556
1788983115945665800,6.740665771484375,0.6900076325088739,-0.48536827249526976,0.09073679424077272
1788983115955624700,6.750624755859375,0.6489689351558685,-0.47749125550985333,0.19224930431684478
1788983115965585200,6.760585205078125,0.6158014095693827,-0.47326589289978144,0.2749859849154949
1788983115975545000,6.770545166015625,0.5767576854258776,-0.493824696803838,0.3046032341418788
1788983115985504300,6.780504150390625,0.5434937137275934,-0.5243731259331107,0.31790633129663765
1788983115995464200,6.790464111328125,0.5004220492422581,-0.5691549553371965,0.3483582412488758
1788983116005424400,6.80042431640625,0.45495735214054583,-0.6232027718670666,0.3781644006434828
1788983116015383300,6.81038330078125,0.5016413619041442,-0.6928662368103862,0.37232743811830876
1788983116025343200,6.82034326171875,0.606567132756114,-0.7532360959686338,0.3972845865791663
1788983116035302100,6.83030224609375,0.7164490647107362,-0.7882493955522775,0.42660088009759783
1788983116045262000,6.840261962890625,0.7703589340746402,-0.800806533177942,0.46528084896262734
1788983116055222000,6.850221923828125,0.6987035646617412,-0.8092315394349395,0.44228699993137266
1788983116065181200,6.86018115234375,0.6584791063010692,-0.8922033987626433,0.3219002963036299
1788983116075141000,6.87014111328125,0.6683294691860675,-0.9478225562624633,0.19813819795865564
1788983116085101000,6.88010107421875,0.7052303360819816,-0.9884661168180405,0.09589135485920124
1788983116095060200,6.890060302734375,0.6860492502719163,-1.0826645958200096,0.019690642767399548
1788983116105020200,6.900020263671875,0.7023381217718124,-1.1465618984520434,-0.06257274863054044
1788983116114979000,6.90997900390625,0.7023059730678797,-1.1713361280940473,-0.11917654238669201
1788983116124939300,6.919939208984375,0.5965881750553846,-1.2006716743022203,-0.12203251633970066
1788983116134899200,6.929899169921875,0.35508886467814443,-1.199419774544984,-0.14033935833219438
1788983116144858000,6.939858154296875,0.048071080207824704,-1.1299005403779447,-0.16855631230659782
1788983116154818000,6.949818115234375,-0.29406594843864436,-1.0553295757792889,-0.26731598001057283
1788983116164778200,6.9597783203125,-0.6682143183737993,-1.0289824707973747,-0.38515678028147665
1788983116174737200,6.969737060546875,-0.9825053087174892,-0.9846026463229208,-0.4214984789246693
1788983116184697000,6.979697021484375,-1.0847446169644595,-0.9311762496270238,-0.4524855917321518
1788983116194656300,6.98965625,-1.1954156534701585,-0.8828840009491891,-0.4671467524323612
1788983116204616200,6.9996162109375,-1.227595337063074,-0.8170243122030049,-0.4371335261583328
1788983116214576000,7.009576171875,-1.24584235689342,-0.8700310952473431,-0.41990211311131714
1788983116224535300,7.019535400390625,-1.017722752571106,-0.9241098183721304,-0.3617497108068317
1788983116234495200,7.0294951171875,-0.5978256078958512,-1.0078416292216628,-0.30320144105255603
1788983116244455200,7.039455078125,-0.24076515088379383,-1.2060103319164366,-0.243834110000357
1788983116254414000,7.0494140625,-0.11864859125614166,-1.3178767887517808,-0.23117669033799318
1788983116264374300,7.059374267578125,-0.3589244973182678,-1.1200391446422784,-0.21425761290946974
1788983116274334200,7.069334228515625,-0.8390630524665117,-0.5031231979597359,-0.11768376481197773
1788983116284293000,7.079293212890625,-1.4751988095343112,-0.02624130651988089,-0.011804784888401627
1788983116294253000,7.089253173828125,-2.09040985199511,0.37789018681198355,0.16289076082557438
1788983116304212000,7.0992119140625,-2.4399235468894243,0.6786971339434384,0.1975623890983872
1788983116314172000,7.109171875,-2.8416449834048745,0.8517872902873903,0.1927521575387567
1788983116324132000,7.119132080078125,-2.380739536514878,0.8927265458539128,0.06615048838630318
1788983116334091300,7.12909130859375,-1.6271762544184922,0.799306942269951,-0.1285522369646467
1788983116344051200,7.13905126953125,-0.9111351859867572,0.6386810576364398,-0.2655919326969422
1788983116354011100,7.14901123046875,-0.21109540428519247,0.3379447645884007,-0.32408600631225853
1788983116363970000,7.158969970703125,0.6003185937553643,0.17760120402760804,-0.3518612078685313
1788983116373930200,7.16893017578125,1.2081886258035897,0.017194880428910254,-0.36876996483244
1788983116383889200,7.17888916015625,1.6978543032318352,-0.15083207424134015,-0.3357050959028303
1788983116393849000,7.18884912109375,2.170652432489395,-0.35265462326854463,-0.2081072735861875
1788983116403809000,7.19880908203125,2.4901684640049933,-0.5127182709094137,-0.050330586105026304
1788983116413768000,7.208767822265625,2.7824147958010435,-0.5787574078757316,0.07066792927812784
1788983116423728000,7.21872802734375,2.8127193331718443,-0.6559210193160921,0.2114007804399356
1788983116433688000,7.22868798828125,2.4905220997482536,-0.5913888528466225,0.31263405344951894
1788983116443647200,7.238647216796875,1.9693787495166062,-0.4392707573827356,0.3678898209970444
1788983116453607200,7.248607177734375,1.3062170383572578,-0.2437300651039928,0.4220051863377914
1788983116463566000,7.258566162109375,0.6554536210000514,0.1762806229483336,0.4588693014198914
1788983116473526300,7.2685263671875,-0.12969839305877684,0.6126774323299526,0.4994320152916014
1788983116483486200,7.278486328125,-1.166473636624217,0.7983409467820077,0.45134668736271555
1788983116493445000,7.288445068359375,-2.1620681440174576,0.7877067400429397,0.28284393187426027
1788983116503405000,7.298405029296875,-2.7374440196961163,0.6931834860660135,0.24468685437217352
1788983116513365000,7.308364990234375,-2.8512796577125785,0.505766515542753,0.26521993931308385
1788983116523324200,7.31832421875,-2.591310624665022,0.3344754445100203,0.25436558701731266
1788983116533284000,7.3282841796875,-1.992969468462467,0.11155921751707791,0.25177286711037156
1788983116543243300,7.3382431640625,-1.4276654894649983,-0.15979670380037278,0.135348253780324
1788983116553203200,7.348203125,-0.7214192543387412,-0.40826775288637723,-0.06110681339697912
1788983116563163100,7.3581630859375,0.21717735454738138,-0.6369530648000538,-0.03619098332719877
1788983116573122000,7.3681220703125,0.9096563456058502,-0.7250681322351098,0.06496695942385122
1788983116583082200,7.378082275390625,1.5645932492554186,-0.8630447434913366,0.12487707384955138
1788983116593042200,7.388042236328125,1.8144664202243088,-1.0260999010983853,0.1329584360343404
1788983116603001000,7.3980009765625,1.897356300356984,-1.1091006942596286,0.16786739846067503
1788983116612961000,7.4079609375,1.8580366818815468,-1.091271753710881,0.1817127127333544
1788983116622921200,7.417921142578125,1.7547721222400665,-1.0324542385611684,0.21224126811837776
1788983116632880000,7.427880126953125,1.6490256826549767,-0.9153730427522212,0.3209777015659958
1788983116642840000,7.437840087890625,1.4197925641328095,-0.8183803299218416,0.39847076415643096
1788983116652799200,7.44779931640625,1.1313508853167296,-0.7447850784875452,0.45593649937100705
1788983116662759200,7.45775927734375,0.7894114250689744,-0.6775131117906421,0.42786001331321893
1788983116672719400,7.46771923828125,0.4793026888459921,-0.6499258705545217,0.3284544671874493
1788983116682678300,7.47767822265625,0.2420738953948021,-0.6451457966711371,0.2522705874994397
1788983116692638200,7.48763818359375,0.09587152678072453,-0.5759533102404326,0.2116834698388353
1788983116702598100,7.49759814453125,-0.0542670122385025,-0.5115050226621329,0.2562981259824708
1788983116712557000,7.50755712890625,-0.09265139569044113,-0.5340701248873024,0.2511257831121795
1788983116722517200,7.517517333984375,-0.10333294870257377,-0.4964986652534455,0.3062205514117144
1788983116732476200,7.52747607421875,0.023157003703713416,-0.5129799175202846,0.3060559354345314
1788983116742436000,7.53743603515625,0.18981588489115236,-0.5677027107022702,0.2985994088835083
1788983116752396000,7.54739599609375,0.25539398021697995,-0.6031224721949547,0.2786271726957522
1788983116762355200,7.557355224609375,0.2610007141828537,-0.6694613958254456,0.2570909568605944
1788983116772315100,7.567315185546875,0.1941542063564062,-0.6989433647669852,0.29729243620447815
1788983116782275000,7.577275146484375,0.07090835043787956,-0.7212818186294288,0.2825681836728006
1788983116792234200,7.587234130859375,-0.12716507518887518,-0.6417311659220606,0.33031109137218445
1788983116802194200,7.597194091796875,-0.35637831996679303,-0.5368040798958391,0.36557051120400424
1788983116812153000,7.607153076171875,-0.63904433799088,-0.46189679601490496,0.38322738312147553
1788983116822113000,7.617113037109375,-0.8706880247861146,-0.4027359473202377,0.33079076464790846
1788983116832073200,7.6270732421875,-0.9843915608555078,-0.38316600832305847,0.2544019004397094
1788983116842032000,7.6370322265625,-0.9305003961920738,-0.4671811661586165,0.2709717808380723
1788983116851992000,7.646991943359375,-0.7761445317387581,-0.6379581501893699,0.29280957343569025
1788983116861952000,7.656951904296875,-0.35147535035610195,-1.0119410273645073,0.3315657310757786
1788983116871911200,7.6669111328125,0.15373919385969637,-1.1180845034431666,0.35402627694793043
1788983116881871000,7.67687109375,0.3062479691416025,-0.9821120716162025,0.27758802064005283
1788983116891831000,7.6868310546875,-0.048861938324570656,-0.7828986091088503,0.23451904130214823
1788983116901790200,7.696790283203125,-0.6824591168254613,-0.3850795137941837,0.277887862103153
1788983116911750100,7.706750244140625,-1.6458832929760217,0.03546396596059203,0.36797231164872646
1788983116921709000,7.716708984375,-2.483897128650546,0.42552309479825196,0.3798279864741489
1788983116931669200,7.726669189453125,-2.9662562824577092,0.82515800736323,0.30175942555069923
1788983116941629200,7.736629150390625,-3.384042134067416,1.0673882623635231,0.24568547348808495
1788983116951588000,7.746588134765625,-3.476761334297061,1.0103936517920344,0.21564618119103832
1788983116961548000,7.756548095703125,-3.0128531984597444,0.8753052362579852,0.12944248206894843
1788983116971507700,7.7665078125,-2.1317086615890264,1.0416405115142464,0.12225984055586159
1788983116981467000,7.776466796875,-0.9039327072620391,1.0213859512537717,0.1965814517696388
1788983116991426800,7.7864267578125,0.07837327949106693,0.6940354267202318,0.2204485765040852
1788983117001385700,7.7963857421875,0.7152303365707398,0.4674111755222082,0.09865112929558381
1788983117011346000,7.806345947265625,1.3486053967535494,0.4006239966675639,-0.06978331019701436
1788983117021305900,7.816305908203125,1.9145295534759759,0.25030235616639257,-0.18549846008345483
1788983117031264800,7.8262646484375,2.3525363553375005,0.07751132889948785,-0.27667865071017295
1788983117041224700,7.836224609375,2.701339856135845,0.0014199498005211353,-0.3344876098718494
1788983117051184600,7.8461845703125,2.866440986487269,-0.15273520444892347,-0.4091459604930132
1788983117061143800,7.856143798828125,3.0369489443182944,-0.26784583083726465,-0.4525397696048021
1788983117071103700,7.866103759765625,2.9497353557676074,-0.31570370668582615,-0.4638287139255553
1788983117081063000,7.87606298828125,2.7440719134032725,-0.3187347449447959,-0.47973388333749023
1788983117091022800,7.88602294921875,2.5456331615954637,-0.27729959562011064,-0.4283433398507535
1788983117100982800,7.895982666015625,2.221601113960147,-0.23521789202019572,-0.3736104636661708
1788983117110942000,7.90594189453125,1.7818723106116054,-0.14985022359713912,-0.3002768588427454
1788983117120902000,7.91590185546875,1.3238339435905218,0.007823971623927355,-0.3260680469749495
1788983117130861800,7.92586181640625,0.7488198869615793,0.3417429147623479,-0.37965197232011705
1788983117140820700,7.93582080078125,0.75353697861135,0.29541926274374125,-0.3616957886625081
1788983117150780700,7.94578076171875,-0.998074633771181,1.065335421486944,-0.16232660587048156
1788983117160739600,7.955739501953125,-1.9105659105420112,1.211034809014946,0.030566526474966667
1788983117170699800,7.96569970703125,-2.6236516362994906,1.1754693554412572,0.09433833499723114
1788983117180659700,7.97565966796875,-2.619462952437997,1.1194437360323966,0.08519698803126811
1788983117190619000,7.985618896484375,-2.4701848296403885,0.8039871359754354,-0.11331913986168801
1788983117200578800,7.995578857421875,-1.5275848303318023,0.6168815329562872,-0.2201053342906758
1788983117210538800,8.005538818359375,-0.36346564787924285,0.37102921500131486,-0.19147716916687785
1788983117220498000,8.015497802734375,0.5131038361608982,0.06459419885501265,-0.12507678853957913
1788983117230457900,8.025457763671875,1.0244096829891205,-0.27422347611039877,-0.14984288054089992
1788983117240417800,8.035417724609376,1.3671043455183505,-0.42313437303081153,-0.15425686105825007
1788983117250376700,8.045376708984374,1.7279460746347903,-0.47977651690281925,-0.16538973803445695
1788983117260337000,8.0553369140625,1.774713671028614,-0.5944089313201606,-0.1974962650596164
1788983117270295800,8.0652958984375,1.685456009429693,-0.6722328333001584,-0.2011586600246839
1788983117280255700,8.075255859375,1.488172272875905,-0.6786170544445514,-0.17478800977040082
1788983117290215700,8.085215576171874,1.2850076615899801,-0.6762742176454514,-0.22883516871314494
1788983117300174600,8.095174560546875,1.1104062969654798,-0.7704377714645118,-0.310371296149306
1788983117310134500,8.105134521484375,0.859456436675787,-0.7927007489379495,-0.33375809002090245
1788983117320094700,8.1150947265625,0.6728396400868892,-0.753897409421578,-0.3049087564270943
1788983117330054000,8.125053955078124,0.622462621024251,-0.7504127091109752,-0.2486297102464363
1788983117340013800,8.135013916015625,0.6222638835817575,-0.7168911824550479,-0.1748625545776449
1788983117349972700,8.14497265625,0.554966124856472,-0.6840425135593861,-0.15091162401726468
1788983117359932700,8.1549326171875,0.4089239152401685,-0.673537193896994,-0.12590277276863343
1788983117369892900,8.164892822265625,0.31322949859201904,-0.6668590313073247,-0.12748831579387188
1788983117379851800,8.174851806640625,0.19031039040982722,-0.6425473776757716,-0.1608454822009429
1788983117389811700,8.184811767578125,0.19015140045583248,-0.6416803855828941,-0.1674198921551928
1788983117399771600,8.194771728515626,-0.03898410291075706,-0.7122207064259797,-0.16976165124205872
1788983117409730600,8.20473046875,-0.03175473617911339,-0.8087460940055549,-0.16419787963507695
1788983117419690800,8.214690673828125,0.03736322371065617,-0.8617389215897768,-0.11444218907486647
1788983117429650000,8.22464990234375,0.029452888977527618,-0.883905014559999,-0.06744591675801202
1788983117439609900,8.23460986328125,-0.09267945274114608,-0.8783193964473903,0.03085977836707607
1788983117449569800,8.24456982421875,-0.23278759613335132,-0.8357938215374946,0.054115785465855146
1788983117459528700,8.25452880859375,-0.3731640350729227,-0.7642475385222584,0.010361490744911134
1788983117469489000,8.264489013671875,-0.4924690444111824,-0.7043588139444589,-0.039230332756787535
1788983117479448800,8.27444873046875,-0.6096960784316062,-0.64786112004444,-0.13903002929929642
1788983117489407700,8.28440771484375,-0.6796329534888267,-0.6498855385441332,-0.2511172344795428
1788983117499367700,8.29436767578125,-0.7254734981656074,-0.6146952018931507,-0.3086564915880561
1788983117509326600,8.30432666015625,-0.807228821310401,-0.5683162394907325,-0.4290382267797366
1788983117519286800,8.314286865234376,-0.7702747629225254,-0.5853641857296228,-0.4853909227184951
1788983117529246700,8.324246826171875,-0.7559288421839475,-0.5725252354878931,-0.5149071227231994
1788983117539206000,8.334205810546875,-0.8316168281137942,-0.5322859448842704,-0.5018040051199496
1788983117549165800,8.344165771484375,-0.7554279069244861,-0.5704734175246209,-0.4606575365435332
1788983117559125800,8.354125732421876,-0.5757511387318373,-0.7850457772053778,-0.3868952579792589
1788983117569085000,8.3640849609375,-0.38384383451938625,-1.0241229019369928,-0.2722693463679403
1788983117579044900,8.374044921875,-0.15454291145801544,-0.994043990015611,-0.06470007038228213
1788983117589004800,8.3840048828125,-0.45776188816726204,-0.7724041031014174,0.20116737305410204
1788983117598963700,8.393963623046876,-1.1820412081122398,-0.4257935823027044,0.3433371982164681
1788983117608923600,8.403923583984374,-1.9763024112999439,-0.057811114586144685,0.3240358470275998
1788983117618882600,8.413882568359375,-2.464665189436078,0.22779892100058494,0.34649237431176005
1788983117628842800,8.4238427734375,-2.847629318511486,0.5041992296934128,0.422881201987341
1788983117638802700,8.433802734375,-2.8441648572713136,0.4470939983543008,0.37568712380975483
1788983117648761900,8.443761962890624,-3.2566222073346376,1.002165556346625,0.5049461025379598
1788983117658721800,8.4537216796875,-3.121977590045333,1.0546762264370917,0.3747784114670008
1788983117668682000,8.463681884765625,-2.574208098694682,1.040523709378764,0.24858682095278054
1788983117678641000,8.473640869140626,-1.8118717275559901,1.0088904806874692,0.030636764999851584
1788983117688600800,8.483600830078124,-0.9840110371053218,0.8432439914129674,-0.07577321652788668
1788983117698559700,8.493559814453125,-0.01887421181797981,0.5938064353823661,-0.0012157689979299903
1788983117708519700,8.503519775390625,0.9729314246863127,0.4315028998602181,0.07232610828131437
1788983117718480000,8.51347998046875,1.939031542047858,0.27245610111169516,0.03566876781769097
1788983117728438800,8.523438720703124,2.7700533268779512,0.03727598381862044,0.07604417895637453
1788983117738398700,8.533398681640625,3.4536259579032658,-0.17253025743886827,0.10818652621358632
1788983117748358700,8.543358642578125,3.824986742946505,-0.34346506237983704,0.12056304657533765
1788983117758317800,8.55331787109375,4.079315139758586,-0.3918688816733658,0.1831407179761678
1788983117768277800,8.56327783203125,3.9816204892039297,-0.3650489715479314,0.30524368746988473
1788983117778237000,8.57323681640625,3.628373453000188,-0.251523130133003,0.4154350506998598
1788983117788196900,8.58319677734375,2.940894462186098,-0.07190700608640908,0.45232488474510607
1788983117798156800,8.59315673828125,2.0740034915953873,0.04729308157265186,0.3796113845814019
1788983117808115700,8.60311572265625,1.354169460621476,0.23098566127792,0.1321540425825864
1788983117818075600,8.61307568359375,0.7520026086509227,0.5050527777828275,0.09340710942856967
1788983117828035800,8.623035888671875,0.10832125850915908,0.7113298220008611,0.09573599076755344
1788983117837994800,8.632994873046876,-0.5359627337008714,0.8609613613460212,0.10584018228314816
1788983117847954700,8.64295458984375,-0.5275853659778833,0.8147141355644911,0.15647793464120477
1788983117857913900,8.652913818359375,-1.7878180672734976,0.8793243357062339,0.0736299208888784
1788983117867873800,8.662873779296875,-2.0843933681845663,0.7600133350186049,0.007165288519486785
1788983117877833700,8.672833740234376,-2.0524305422127247,0.5637962778482586,-0.05367054418269544
1788983117887793000,8.68279296875,-2.051669494712353,0.5642625071205198,-0.032991255704127254
1788983117897752800,8.6927529296875,-0.726693979871273,0.25519400066547093,0.06774466224256903
1788983117907712800,8.702712646484375,0.07380465640127658,0.08666311506107449,0.17750340620893984
1788983117917671700,8.712671630859376,0.652377282294631,-0.10624942067116498,0.23166925962790846
1788983117927632000,8.7226318359375,1.1791881567686795,-0.27121450355276466,0.19715996404364705
1788983117937591800,8.732591796875,1.566323434048891,-0.4530374899938702,0.20006160376928744
1788983117947550700,8.74255078125,1.8313076649099587,-0.5672227451656013,0.19756511077843605
1788983117957510700,8.7525107421875,1.9150047697722912,-0.6538488892171531,0.2459416767388582
1788983117967469800,8.7624697265625,1.7848311604171991,-0.7365501879751681,0.28208770667947825
1788983117977429800,8.7724296875,1.5200088421195745,-0.7210686873354017,0.2783110011523589
1788983117987389700,8.7823896484375,1.1535440124243497,-0.6894562822364271,0.23606343946624544
1788983117997348900,8.792348876953126,0.8065233033895493,-0.6615419279377908,0.17115374492127447
1788983118007309000,8.80230908203125,0.52069093028903,-0.6013545126743615,0.11993687750101088
1788983118017269000,8.81226904296875,0.280789702758193,-0.5585296625569462,0.14077256211768835
1788983118027228000,8.822227783203125,0.12991232807040215,-0.5428597266729921,0.21954930784311144
1788983118037187800,8.832187744140626,0.029852117428183556,-0.5524426707934588,0.30997166583985086
1788983118047146800,8.842146728515624,-0.07178630231618881,-0.6082495328851044,0.35123291990235445
1788983118057107000,8.85210693359375,-0.0326473011046648,-0.6191179867714643,0.36931218195036053
1788983118067067000,8.86206689453125,0.05967500876188278,-0.650263212750107,0.40529874701295043
1788983118077025800,8.87202587890625,0.16974398772120475,-0.7362004977546632,0.41581192118823523
1788983118086985700,8.88198583984375,0.26147534595727917,-0.8075197670809924,0.43368411635681986
1788983118096946000,8.89194580078125,0.34038755463063713,-0.8386568097531795,0.49277263046763836
1788983118106905000,8.901905029296875,0.38243221415579315,-0.8687721812274306,0.5243588051468133
1788983118116865000,8.911864990234376,0.4335913235068321,-0.8868778198257088,0.5663302533052862
1788983118126824000,8.921823974609374,0.42723464795649047,-0.886006955275312,0.5875499688034876
1788983118136784000,8.931783935546875,0.4260393006920814,-0.8746762176394463,0.5955421000685542
1788983118146743800,8.941743896484375,0.18238778071701525,-0.8254988566901534,0.6396079632230103
1788983118156703000,8.951702880859376,0.0032300679624080657,-0.7792178017042577,0.657844461659342
1788983118166663000,8.961662841796874,-0.13071838375627995,-0.697560166780278,0.684679130962491
1788983118176622800,8.971622802734375,-0.21473872922360895,-0.638131460929662,0.7739751518104225
1788983118186581800,8.981581787109375,-0.24208383226692676,-0.5584989751577377,0.8660599265940487
1788983118196541700,8.991541748046876,-0.3227963683605194,-0.5127678822048009,0.9401755486406386
1788983118206502000,9.001501953125,-0.38778292753398413,-0.492952736274898,0.9857228094592689
1788983118216461000,9.0114609375,-0.4254103551387787,-0.46601825985908507,0.9760920076090842
1788983118226421000,9.0214208984375,-0.35753158165514465,-0.5111958105824888,0.9685611006475985
1788983118236380000,9.0313798828125,-0.1848778439670801,-0.8395536124624311,0.9235441473133862
1788983118246339800,9.04133984375,0.24038404261171817,-1.0540748995430766,0.7317926181845367
1788983118256300000,9.051300048828125,0.20791911233663557,-0.813980049136281,0.46871721661947663
1788983118266259000,9.061259033203125,-0.38465515090227126,-0.6160374102823436,0.36114312321580944
1788983118276219000,9.071218994140626,-1.0554378584593533,-0.356535994746536,0.22381916718203573
1788983118286178800,9.0811787109375,-1.913089876061678,-0.08180778398439288,0.22761194706112145
1788983118296137700,9.0911376953125,-2.5557132415831085,0.2035083101570606,0.1630441978216171
1788983118306098000,9.101097900390625,-2.9392940412521362,0.7058110585793852,-0.03012496128650382
1788983118316057000,9.11105712890625,-3.3001047907084224,1.082047852161154,-0.19690229948814958
1788983118326017000,9.12101708984375,-3.447797105619311,1.1532839001834392,-0.23551915825540198
1788983118335977000,9.13097705078125,-3.300361395817995,1.215864567258954,-0.10195705723948777
1788983118345936000,9.140935791015625,-2.643082312956452,1.2056196520984173,-0.08404168051630258
1788983118355896000,9.15089599609375,-1.528605405551195,1.0031909538716077,-0.16169654607232659
1788983118365856000,9.16085595703125,-0.5206739791542291,0.6857664878077805,-0.2422597733557224
1788983118375815000,9.17081494140625,0.3935194253593683,0.4273350395910442,-0.3871026901848614
1788983118385774800,9.18077490234375,0.38646366162896156,0.4778360503595322,-0.41057109792530533
1788983118395733800,9.190733642578126,1.8877227950930595,-0.00014686112478375435,-0.6122884695449844
1788983118405694000,9.20069384765625,2.4992519341707227,-0.04193827654123306,-0.6645723086096346
1788983118415654000,9.21065380859375,2.868226116338372,-0.07265095632150768,-0.6730293174400925
1788983118425612800,9.22061279296875,2.9440006115078923,-0.04754004207104444,-0.7245560910597443
1788983118435572700,9.23057275390625,2.729804903119802,0.009813538005948067,-0.8568798641860484
1788983118445532700,9.24053271484375,2.245724916869402,0.08220876600071787,-0.9894849384717642
1788983118455491800,9.250491943359375,1.703054209962487,0.11922083818614482,-1.0043297486431897
1788983118465452000,9.2604521484375,1.1068781228393316,0.20854718110710382,-0.9252525586664676
1788983118475411000,9.270410888671876,0.7084674183070659,0.31385186827406286,-0.8330496373958886
1788983118485371000,9.280370849609374,0.3641150516986847,0.5463707304686307,-0.79414057248272
1788983118495330800,9.290330810546875,-0.14774842901229857,0.7592585711285471,-0.7764054476972669
1788983118505289700,9.300289794921875,-0.6324842488229274,0.9487154134489595,-0.6350471581134944
1788983118515250000,9.31025,-1.021527405551076,1.0431082459792493,-0.46137613314166664
1788983118525209900,9.3202099609375,-1.347643858245015,1.1158179467506706,-0.29840386804509905
1788983118535168800,9.330168701171875,-1.5140385355383157,1.0968940505720675,-0.226985193464905
1788983118545128700,9.340128662109375,-1.4649766907274722,1.0001438412606716,-0.28485943641513584
1788983118555089000,9.3500888671875,-1.1717618061602115,0.8805806924428791,-0.3902972119098529
1788983118565048000,9.360048095703124,-0.5198252533704042,0.8159603362333029,-0.4824322555759921
1788983118575008000,9.370008056640625,0.1930383540689945,0.6578399316146969,-0.3998595516337082
1788983118584967000,9.379966796875,0.18794716840982437,0.6942154594622552,-0.41010015594530846
1788983118594926800,9.3899267578125,1.1639759745895861,0.3151403006494045,-0.23158019310496747
1788983118604887000,9.399886962890625,1.444329624018073,0.20974662002474068,-0.2632880579350516
1788983118614846000,9.409845947265625,1.6214011781483888,0.1025581649377942,-0.2652604539865628
1788983118624806000,9.419805908203125,1.6177783114761113,0.03627265199497342,-0.23251060582287608
1788983118634765800,9.429765869140626,1.6172031419366597,0.040323242560029025,-0.23244879263304172
1788983118644724700,9.439724853515624,1.1683061127483845,-0.018949761272221803,-0.2649999398868531
1788983118654684700,9.4496845703125,0.8965420124888419,-0.001214782617241144,-0.30452677137218415
1788983118664644000,9.45964404296875,0.678515347635746,0.06577434855028987,-0.34013515077214684
1788983118674604000,9.46960400390625,0.5591109695762395,0.11247750140577555,-0.3403513142734766
1788983118684564000,9.47956396484375,0.4267372198283672,0.1270240592829883,-0.3706891328593716
1788983118694523000,9.48952294921875,0.32572131589651104,0.13935469467639922,-0.45051604522485283
1788983118704482800,9.49948291015625,0.22131927665770051,0.10577844215855002,-0.5466900986161083
1788983118714443000,9.509443115234374,0.22737784604430197,0.07366495566964149,-0.5873650772232561
1788983118724402000,9.51940185546875,0.24312077409923075,0.06324979850873351,-0.6327249257110059
1788983118734361900,9.52936181640625,0.24339842199683187,0.0628702976718545,-0.627114684613794
1788983118744320800,9.53932080078125,0.19121523029506204,-0.08808730264529585,-0.8202868941955268
1788983118754280700,9.54928076171875,0.2770651292771101,-0.176044403039664,-0.8725929816246032
1788983118764241000,9.559240966796875,0.40070553747117515,-0.262910785587877,-0.9045213938701897
1788983118774200000,9.569199951171875,0.46600072420239447,-0.3368712170727551,-0.9468870289780199
1788983118784160000,9.579159912109375,0.546937132179737,-0.42262759255245325,-0.9347438059154898
1788983118794120000,9.589119873046876,0.5558756409168243,-0.5823924764424562,-0.9549537233166396
1788983118804078800,9.599078857421874,0.41492753956913947,-0.60206587581411,-1.0286153179854154
1788983118814039000,9.6090390625,0.35713586033582684,-0.5698910145267844,-1.0840285776495933
1788983118823998000,9.618998046875,0.2063531781941652,-0.5919159454606473,-1.0775554361127315
1788983118833958000,9.6289580078125,0.011855272966623306,-0.5600628634735941,-1.1182703083388508
1788983118843917800,9.638917724609374,-0.17874153316915034,-0.5137604003734886,-1.1752290438793598
1788983118853876700,9.648876708984375,-0.27436814527809616,-0.4423613438092172,-1.174055908446759
1788983118863837000,9.6588369140625,-0.34507483566403385,-0.3756861008964479,-1.12453331425637
1788983118873796900,9.668796875,-0.4212672639846802,-0.2759815718241036,-1.0646442974176258
1788983118883756000,9.678756103515624,-0.5411012656331062,-0.19198840662464497,-1.0693798015069216
1788983118893716000,9.688716064453125,-0.5289373651087284,-0.11483370914310216,-1.091093036143109
1788983118903675000,9.6986748046875,-0.6259446179211139,-0.07578910821676253,-1.1016452636871485
1788983118913634800,9.708634765625,-0.5131687180906533,-0.2122621099770069,-1.0609669971443711
1788983118923595000,9.718594970703125,-0.10942775844633579,-0.6190129189617931,-0.9094806967779994
1788983118933554000,9.728553955078125,0.31102935819923877,-0.6808613262400031,-0.8917757479351014
1788983118943513900,9.738513916015625,0.37169571608602997,-0.5467762425296008,-0.9994596583887934
1788983118953473800,9.748473876953126,0.36860534885525703,-0.5339053627796471,-1.0297070587448776
1788983118963432700,9.7584326171875,-1.1964578559994696,0.5714610403224826,-0.9409801430217921
1788983118973393700,9.7683935546875,-2.4623551589280366,1.322004097814858,-1.0936571144774556
1788983118983353600,9.778353515625,-2.4576047495305535,1.2546158843271433,-1.1828947562016545
1788983118993312500,9.7883125,-3.606813363099098,2.0808507271416485,-0.9344882237192242
1788983119003272400,9.7982724609375,-3.846259832599759,2.2435379282191397,-0.7222253830898553
1788983119013231900,9.80823193359375,-3.6738814047217367,2.353261893133074,-0.48893962817601855
1788983119023191800,9.81819189453125,-2.728383930405974,2.286458493795991,-0.5494795832041651
1788983119033151700,9.82815185546875,-2.7321383145034313,2.292489882914722,-0.5809115902349352
1788983119043110700,9.838110595703125,-0.5347352377325296,1.565777198342979,-1.5337749171435833
1788983119053070600,9.848070556640625,-0.16845160982310772,1.2786886877015233,-2.0543530347079035
1788983119063030800,9.85803076171875,0.20769874758422374,1.1672815920062363,-2.430222237086296
1788983119072989700,9.86798974609375,0.48192485404312607,1.3415480255879462,-2.829553855855763
1788983119082949600,9.87794970703125,0.4812994156211614,1.3778459581546485,-2.777688936322927
1788983119092908500,9.887908447265625,0.21750644037127492,1.4957733955293893,-3.463571597856283
1788983119102868500,9.897868408203125,0.10435293940007687,1.556204629486054,-3.5878526420414447
1788983119112828700,9.90782861328125,0.014060089534521102,1.6067485295481978,-3.5281969225019214
1788983119122787800,9.917787841796875,-0.030440730971097944,1.6934373635724187,-3.5525747001722454
1788983119132747800,9.927747802734375,-0.028042437657713887,1.6823880001612006,-3.5392122375130652
1788983119142707700,9.937707763671876,0.0123696522295475,1.6114504236288367,-3.5111353130638596
1788983119152666600,9.94766650390625,0.3229173643916845,1.6029836240567266,-3.404341994774341
1788983119162626800,9.957626708984375,0.6332224999696016,1.6162398498624562,-3.258365251609683
1788983119172585700,9.967585693359375,0.8310907584130763,1.5783204535737634,-3.1617882069081067
1788983119182545700,9.977545654296875,0.8290256425768137,1.5869443434037267,-3.174443105819821
1788983119192505600,9.987505615234374,0.793045397657156,1.6554128994740545,-2.9284704494208094
1788983119202464500,9.997464599609375,0.792841984039545,1.650426635494083,-2.940881018182635
1788983119212424700,10.0074248046875,0.6236334183692932,1.6816646543227136,-2.54760796879977
1788983119222384600,10.017384521484376,0.47514147751331326,1.7469509270951151,-2.3856879527024923
1788983119232343600,10.027343505859376,0.47768648582100864,1.731276534231752,-2.37972889816761
1788983119242303500,10.037303466796875,0.13169628887772558,1.8798339415393768,-2.170246335906535
1788983119252263400,10.047263427734375,0.13495324484705923,1.8635681586541235,-2.1543713059045375
1788983119262222600,10.05722265625,-0.15144436092078684,1.996960876186192,-1.8875681890532374
1788983119272182800,10.067182861328124,-0.28908816002607346,2.0381882279790937,-1.713289772772789
1788983119282141700,10.0771416015625,-0.2854553564816713,2.0210675818301738,-1.6903944887451827
1788983119292101600,10.0871015625,-0.4385790487915277,2.101223799215257,-1.3777701164394616
1788983119302061600,10.0970615234375,-0.4352244776666164,2.0845709167085587,-1.3557277959793805
1788983119312020500,10.1070205078125,-0.446639021128416,2.1371108128935097,-0.9808693780787289
1788983119321980700,10.116980712890625,-0.48708910493850704,2.1505933948010205,-0.7259832012534141
1788983119331940600,10.126940673828125,-0.4846142392575741,2.1366151383310554,-0.7104908869586885
1788983119341899500,10.1368994140625,-0.4315612789839506,2.0744607338435945,-0.2564271591896191
1788983119351859500,10.146859375,-0.4295043464541435,2.061741975915432,-0.2447134866507724
1788983119361818600,10.156818603515624,-0.36636779906153677,1.825254210089892,0.1653076857741922
1788983119371778800,10.16677880859375,-0.3282680777698755,1.7108011708274482,0.33963680932857093
1788983119381738800,10.17673876953125,-0.35751989121735095,1.6197351446323096,0.49996707201637325
1788983119391697700,10.18669775390625,-0.31462942851781844,1.450085118804872,0.6019139366554096
1788983119401657600,10.19665771484375,-0.3131318834364414,1.442207517297566,0.6166372758716344
1788983119411617800,10.20661767578125,-0.22066519666314124,1.0289681500110774,0.6337130599655211
1788983119421576700,10.21657666015625,-0.07550035440325736,0.856593083133921,0.7199236089535057
1788983119431536600,10.22653662109375,0.0017220014870166778,0.6689825262673199,0.7879829997010529
1788983119441495600,10.23649560546875,0.16063596763610838,0.5490146691061556,0.9252931098725646
1788983119451455500,10.24645556640625,0.1608095706373453,0.5473273736063391,0.9251052591502666
1788983119461415400,10.25641552734375,0.16264263128340242,0.36855785645171996,1.0856577862866221
1788983119471374800,10.266374755859376,0.11213467931747435,0.31126024434566496,1.1861400217331945
1788983119481334800,10.276334716796875,0.11271043337881564,0.3041876025456935,1.1819359941720962
1788983119491294700,10.286294677734375,0.07990063518881797,0.1480733501177281,1.196567819179967
1788983119501253600,10.296253662109375,0.07998597538471222,0.1454485545720905,1.192013882202655
1788983119511213600,10.306213623046874,0.17980828561782836,-0.010686813709139823,1.2505864826805888
1788983119521172700,10.3161728515625,0.2819756976723671,-0.052918885565176606,1.2984398284845053
1788983119531132700,10.326132568359375,0.37460780414044853,-0.06625679830498993,1.3687509436815977
1788983119541092600,10.336092529296875,0.4385930773168802,-0.12294402342773973,1.3959072461545468
1788983119551051500,10.346051513671876,0.43778059189021584,-0.1169523817975074,1.3919500329613685
1788983119561011500,10.356011474609375,0.4919371294915676,-0.2644202403027564,1.3717188535764813
1788983119570971600,10.3659716796875,0.5101484934866428,-0.2702245426673442,1.3116712121099232
1788983119580930800,10.375930908203125,0.5273784452289343,-0.21869133930690585,1.2856041661784052
1788983119590890800,10.385890869140624,0.47205695550143717,-0.24368447239659724,1.257514089986682
1788983119600849700,10.395849609375,0.47164311400353903,-0.23754158572740852,1.26344815621078
1788983119610809600,10.4058095703125,0.2637579039365053,-0.21780812673158942,1.163137916330248
1788983119620769800,10.415769775390626,0.15947627620697022,-0.2152650181200355,1.117008617839962
1788983119630728700,10.425728759765626,0.06926993558108806,-0.1115267034869641,1.1324226062014697
1788983119640688600,10.435688720703125,0.040728900751471515,-0.09035261722877622,1.1869577678568661
1788983119650648600,10.445648681640625,0.03930325186252594,-0.0838757493648678,1.1714609235174953
1788983119660607500,10.455607421875,0.18163082486987112,-0.1921390671417117,1.1079787775576113
1788983119670567700,10.465567626953124,0.3175771724075079,-0.20381722997575996,0.8699884982146322
1788983119680527600,10.475527587890625,0.5508773942381143,-0.19486315834335982,0.6684716541357338
1788983119690486800,10.48548681640625,0.8006260620445013,-0.29170542985238135,0.3664063775062561
1788983119700446700,10.49544677734375,0.7979752552747726,-0.2647927999421954,0.3781554866846651
1788983119710405600,10.505405517578126,1.1724977192193269,-1.1974310849457979,-0.04784479717127978
1788983119720365600,10.515365478515625,1.5194664058059453,-1.9740559475474058,-0.12195450093373655
1788983119730325800,10.52532568359375,1.777669598224759,-1.5475610120423138,-0.41943036741372197
1788983119740284700,10.53528466796875,1.1493699416100978,-0.1326509592540562,-0.6593693331390619
1788983119750244600,10.54524462890625,1.1554992381453513,-0.16652707150131463,-0.6080213136197998
1788983119760204500,10.55520458984375,-3.425907929894328,1.325421651173383,-0.09622357335509732
1788983119770163500,10.56516357421875,-3.4117858810395,1.2074402185890822,-0.05979288125419989
1788983119780123600,10.57512353515625,-5.444357292050123,1.6449512728229163,0.24446172211309894
1788983119790082800,10.585082763671876,-5.127931043243408,1.500604176686704,0.017986286534927783
1788983119800042800,10.595042724609375,-5.127544674274325,1.480846752293408,-0.030377693938557056
1788983119810002700,10.605002685546875,-0.9017343204349278,0.9673033556714653,0.19575849974788725
1788983119819961600,10.614961669921875,-0.914485080936551,1.074495025628805,0.12423154248762876
1788983119829921800,10.624921875,1.7528361857414245,0.05149031406678259,0.5427650341268628
1788983119839881700,10.6348818359375,3.175394122934341,-0.3131540222030133,0.5429182153945789
1788983119849840600,10.644840576171875,3.161682992967963,-0.22741686288043855,0.4952870609739795
1788983119859800600,10.654800537109375,4.365632666027546,-0.5002854172505438,0.1058018960993737
1788983119869759500,10.664759521484376,4.0161733316689725,-0.4135850389190018,-0.0655902972202748
1788983119879719700,10.6747197265625,2.910298832914233,-0.36070217451527714,-0.28227537473868575
1788983119889679600,10.6846796875,1.7144360201984643,-0.2953958818681538,-0.3475241650449112
1788983119899638500,10.694638427734375,1.7246674913555382,-0.35634514834955333,-0.30883984879832715
1788983119909598500,10.704598388671876,0.2273988888323307,0.4628577500015497,-0.26851357403099535
1788983119919558400,10.714558349609375,-0.7847785045713186,0.36135523159652944,-0.21426665473245082
1788983119929517800,10.724517822265625,-1.5055962858855723,-0.0529020074956119,-0.08793149102907627
1788983119939477800,10.734477783203126,-2.2424083396673202,0.1072418657746166,-0.2023348824635148
1788983119949436700,10.744436767578126,-2.2386919494926927,0.07002367655783891,-0.20532913237605244
1788983119959396600,10.754396728515625,-1.8842887289911507,0.19808760028257966,-0.16075531969945878
1788983119969356500,10.7643564453125,-1.4848364064514636,0.17807035590931772,-0.1482644157104194
1788983119979315500,10.7743154296875,-1.0161462970346211,0.12152809221521019,-0.23959475539755073
1788983119989275400,10.784275390625,-0.4767430674910545,0.05400258914865553,-0.43916053847391157
1788983119999235600,10.794235595703125,-0.4788467617720365,0.0687368516176939,-0.4526925490137189
1788983120009194500,10.804194580078125,0.6847229701042175,-0.1903164548244327,-0.6115471496583893
1788983120019154400,10.814154541015625,1.2139034963190556,-0.30365663747414945,-0.606601436884515
1788983120029114400,10.8241142578125,1.6390817962676285,-0.42281916960179805,-0.5848449476284906
1788983120039073500,10.834073486328125,1.9817010554730892,-0.5396675065029413,-0.5580991987178102
1788983120049033500,10.844033447265625,1.980336196860671,-0.5230006685361266,-0.5498160120842978
1788983120058992600,10.85399267578125,2.0080898807048797,-0.8334223431657999,-0.6065900752402842
1788983120068952600,10.86395263671875,1.7728209891498088,-0.8944380259469151,-0.6282493877321481
1788983120078912500,10.87391259765625,1.4367793547689913,-0.9100537474256009,-0.6340208838056772
1788983120088871400,10.883871337890625,1.0396394008249044,-0.926430662535131,-0.6332290758408605
1788983120098831400,10.893831298828125,1.0416308669030665,-0.9384764896377921,-0.6173141522198915
1788983120108791600,10.90379150390625,0.31372283506691456,-0.8521341309636831,-0.7918607179172337
1788983120118750500,10.91375048828125,0.07915303169190883,-0.7654624672699719,-0.7639018668897449
1788983120128710400,10.92371044921875,-0.1330389356583357,-0.6252858617514372,-0.732323364060372
1788983120138669600,10.933669677734375,-0.3119002958148718,-0.5805048360649496,-0.7412092658273876
1788983120148629500,10.94362939453125,-0.31132454175353047,-0.5867000374432653,-0.7426959972538053
1788983120158589700,10.953589599609375,-0.4064689233034849,-0.6101941641468555,-0.8536122406922281
1788983120168548600,10.963548583984375,-0.3698071258604526,-0.6243227888729423,-0.9605292584266513
1788983120178508500,10.973508544921875,-0.2668815889149904,-0.7169396977718919,-1.0918078333489596
1788983120188468500,10.983468505859374,-0.1370382344275713,-0.7841911331374197,-1.2205049404107033
1788983120198427400,10.993427490234374,-0.13833938015401362,-0.7671704402316362,-1.2082488315582274
1788983120208387600,11.0033876953125,0.0714385117918253,-0.8687221315406263,-1.4036013077884912
1788983120218346500,11.013346435546875,0.11059271057248114,-0.8961994826614856,-1.4706339858368038
1788983120228306400,11.023306396484376,0.17293255462944507,-0.8930934064049273,-1.493909793614596
1788983120238266400,11.033266357421875,0.20829554443359374,-0.8501631231516599,-1.5126501499198377
1788983120248225500,11.0432255859375,0.20668226401805875,-0.8324469222623855,-1.4993438013620675
1788983120258185700,11.053185791015625,-0.021631986093521117,-0.8111362040124833,-1.613890656387806
1788983120268145700,11.063145751953124,-0.18071604811251163,-0.719322062863782,-1.5768918820753692
1788983120278104600,11.0731044921875,-0.276593420112133,-0.5980486029967665,-1.5842593421034514
1788983120288064500,11.083064453125,-0.4005868795275688,-0.5144431950058788,-1.5707088095262647
1788983120298023400,11.0930234375,-0.40351591871678827,-0.49310551568381483,-1.5809158768944442
1788983120307983600,11.102983642578126,-0.49947746186852454,-0.3784314540818333,-1.5508946865096687
1788983120317943600,11.112943603515625,-0.5194692795395851,-0.2883873182803392,-1.5248261792734263
1788983120327902500,11.12290234375,-0.6515320636421441,-0.2731821503639221,-1.4156857133358716
1788983120337862400,11.1328623046875,-0.6671428897500038,-0.30767829420566556,-1.2900155528798698
1788983120347822300,11.142822265625,-0.6737848119825124,-0.27487287992984055,-1.3382114285111426
1788983120357781500,11.152781494140624,-0.25349077694416045,-0.7719004644282161,-0.9921850642759352
1788983120367741700,11.16274169921875,0.08565642223656177,-1.3175734218910335,-0.7875850864246488
1788983120377700600,11.17270068359375,0.13808102147877216,-1.2824419027552008,-0.7642691658321767
1788983120387660500,11.18266064453125,-0.3509691543996334,-0.4368658151328563,-0.7759560234293341
1788983120397620500,11.192620361328125,-0.3547866668611765,-0.4526590120702982,-0.8575796830184758
1788983120407579400,11.202579345703125,-2.6616046425968407,1.1930232053756713,-0.6510736523501575
1788983120417539600,11.21253955078125,-3.8539258371829983,1.6138802811242638,-0.3518632536951452
1788983120427499500,11.22249951171875,-4.8021822548180815,1.98719176184386,0.1502442644160241
1788983120437458400,11.23245849609375,-5.04829168933928,2.350075225920975,0.35374760613702233
1788983120447418400,11.24241845703125,-5.043504455062747,2.270254670231044,0.3226998491834849
1788983120457378600,11.252378662109376,-3.5366935326904057,2.475360770973563,0.0076334905531257385
1788983120467337700,11.262337646484376,-3.5443647979706525,2.529341367486119,-0.011626067320629953
1788983120477297700,11.272297607421875,-0.2412935586720705,1.5110922529533504,-0.24626579412668942
1788983120487256600,11.282256591796875,1.2372346875458955,0.9160553259279578,-0.3067840487796813
1788983120497216500,11.292216552734375,1.2196686357170343,1.0320575673937797,-0.3248615572620183
1788983120507176400,11.302176513671874,3.706239952012896,0.6222938403286039,-0.6379349154442548
1788983120517135600,11.312135498046874,3.6925539564877745,0.7041385953225195,-0.6466314321190119
1788983120527095600,11.322095458984375,3.8455291802376506,0.6391412224940956,-0.9965952088683843
1788983120537055500,11.332055419921875,3.2205250580370426,0.7506802740059793,-1.0106167930234222
1788983120547014400,11.342014404296876,3.2246874384135005,0.7282363870076835,-1.0068347902666777
1788983120556974300,11.351974365234375,1.2662561993688344,0.986398955155164,-1.287475220747292
1788983120566933500,11.36193359375,1.278500763913989,0.9200098357073963,-1.2711980396851896
1788983120576893700,11.371893798828125,-0.27775895676016804,1.6276697370238602,-1.396855925181508
1788983120586853600,11.381853515625,-0.9189595960021019,1.8378366282872856,-1.4212272731110454
1788983120596812500,11.3918125,-0.909542948359251,1.7835381979972122,-1.402728178215772
1788983120606772500,11.4017724609375,-1.908691933363676,2.1678630940318104,-1.2701442928485571
1788983120616732700,11.411732666015626,-1.9047429034769534,2.141621276055276,-1.2642533351138234
1788983120626691600,11.421691650390626,-1.7516542824804782,2.197368882240355,-1.3627832674488425
1788983120636651500,11.431651611328125,-1.3166817337483168,2.153355114599317,-1.3691542637854814
1788983120646610400,11.4416103515625,-1.319513742303848,2.167754811351746,-1.3782386107340454
1788983120656570400,11.4515703125,-0.4917389765709638,1.9369716869086027,-1.2130523593824356
1788983120666530600,11.461530517578124,-0.4959527948737144,1.9530264573916791,-1.2313558586403728
1788983120676489500,11.471489501953124,0.33225743966698645,1.7219835129685699,-1.0647231348074973
1788983120686449400,11.481449462890625,0.5665139393091202,1.5794573486492036,-0.9826607915401459
1788983120696409300,11.491409423828125,0.5628951642900705,1.587965795405954,-1.0026775975219904
1788983120706368500,11.501368408203126,0.8592425016641616,1.3108701248601078,-0.779122963027656
1788983120716328700,11.51132861328125,0.8565086927860974,1.3126895953722297,-0.7984209532156586
1788983120726288600,11.52128857421875,0.8992267215281724,1.2009896542102099,-0.5448328533768654
1788983120736247600,11.53124755859375,0.8232873911857604,1.2439119733527302,-0.5025241360880435
1788983120746207500,11.54120751953125,0.8230132504194975,1.2302630949676037,-0.5177670056663454
1788983120756166400,11.55116650390625,0.3996288481503725,1.3150291442357003,-0.42485067542940375
1788983120766126600,11.561126708984375,0.40082711802423,1.2967910383641719,-0.4330116239227354
1788983120776086500,11.57108642578125,-0.0011649521261453627,1.4216623035274445,-0.2642771055050194
1788983120786045400,11.58104541015625,-0.04541618178486824,1.449335469481349,-0.1563337403975427
1788983120796005400,11.59100537109375,-0.0696212332367897,1.4410197688177226,-0.03379369466081261
1788983120805965300,11.60096533203125,-0.0809013366639614,1.4219129172876477,0.08311945110484957
1788983120815924500,11.610924560546875,-0.08010989402532577,1.4113529448285698,0.07975041306316852
1788983120825884700,11.620884765625,-0.020350714111328123,1.380910168030858,0.3391058442570269
1788983120835843600,11.630843505859374,-0.05162263520956039,1.403443194617331,0.44257381751611824
1788983120845803500,11.640803466796875,-0.08433014206886291,1.4069561711743472,0.5371387917429209
1788983120855763500,11.650763427734375,-0.12258242357373236,1.398756205844879,0.5255296024918555
1788983120865722400,11.660722412109376,-0.12180325589478015,1.3948885706312955,0.5279137211494147
1788983120875682600,11.6706826171875,-0.08177227427959442,1.314360889585316,0.704796913100779
1788983120885642500,11.680642578125,-0.08095628172159194,1.3126232521377503,0.7092329958520829
1788983120895601400,11.690601318359375,-0.13635843546986579,1.2520379966631532,0.7976968767248094
1788983120905561300,11.700561279296876,-0.04925064538121223,1.238779871161282,0.8344532205834985
1788983120915520500,11.7105205078125,-0.04728314470052719,1.239056057754159,0.8491225280575454
1788983120925480700,11.720480712890625,-0.019798340925574302,1.18536764912121,0.7984737063162028
1788983120935440600,11.730440673828125,-0.10646481698751449,1.1528433898743242,0.7589750780120491
1788983120945399600,11.740399658203126,-0.09547054476439952,1.1249864648513495,0.735843793271482
1788983120955359500,11.750359375,-0.09267302300035953,1.1110131037522106,0.7258103289045393
1788983120965319700,11.760319580078125,-0.09049918609261512,1.1251386597383766,0.7570464480370283
1788983120975278300,11.7702783203125,-0.13671674738824366,1.0303711486767977,0.6024662733085453
1788983120985238500,11.780238525390626,-0.07749357404708862,0.9852737505175173,0.6389838399752974
1788983120995197400,11.790197509765624,-0.016909049224853513,0.9430999116547405,0.6647877779912204
1788983121005157400,11.800157470703125,0.1974345432013273,0.7760153524011373,0.6653014266017824
1788983121015117300,11.810117431640625,0.19778467181324957,0.8046918501786887,0.703627577060461
1788983121025076500,11.820076416015626,0.6888947028309106,-0.13133096269667147,0.7737135051995515
1788983121035036400,11.830036376953124,1.1125012234181164,-0.7113901738859713,0.7261198332451283
1788983121044996600,11.83999658203125,1.2306062093168497,-0.183580936024338,0.519082472179085
1788983121054955500,11.84995556640625,0.27753566939830776,1.203942220405489,0.5070076381776482
1788983121064915500,11.85991552734375,0.28662206217348574,1.1764797745928168,0.571371462342888
1788983121074874400,11.869874267578124,-3.2449428754568097,2.0542780697755516,0.7258279376264661
1788983121084834300,11.879834228515625,-3.3340567446708675,1.817136808477342,0.6917421281512827
1788983121094794500,11.88979443359375,-3.3241134428054093,1.4463725280225277,0.2772811831805855
1788983121104753400,11.89975341796875,-2.250265482908487,1.155548337984085,-0.2496100265206769
1788983121114713300,11.90971337890625,-2.2522136943668127,1.1971247224103658,-0.19320991124361753
1788983121124673300,11.91967333984375,0.26316929039359094,0.7791155834387987,-0.6597954495966434
1788983121134632400,11.929632568359375,0.25129765081405636,0.8796129433892667,-0.6277326703816652
1788983121144592600,11.939592529296876,1.3417553847283124,0.40295141670182344,-0.11755082261469214
1788983121154551600,11.949551513671874,1.0940730018019675,0.5440624535262585,-0.13494761882387102
1788983121164511500,11.959511474609375,1.094821774342656,0.5412118864007294,-0.1252343993872404
1788983121174471400,11.969471435546875,0.20131576854884622,0.7271686116456985,-0.2964099177489057
1788983121184430300,11.979430419921876,0.02454232058227062,0.7867670480400324,-0.1534550431560725
1788983121194390500,11.989390625,-0.1965373021006584,0.7890082510955632,-0.10553045874685048
1788983121204350500,11.9993505859375,-0.12859247764348983,0.6280449512012303,-0.013880531716533005
1788983121214309400,12.009309326171875,-0.1317097328811884,0.6462336649730801,-0.028416495134495196
1788983121224269300,12.019269287109376,0.43555414801239967,0.30361674385517834,0.46589456041418015
1788983121234228500,12.029228515625,0.8316127364605664,0.2369616669476032,0.6037617564791813
1788983121244188700,12.039188720703125,1.031579428488016,-0.014349135608971117,0.6456825338963419
1788983121254148600,12.049148681640625,1.017981695768237,-0.23697262673303485,0.6738970401853323
1788983121264107500,12.059107421875,1.0148936666250228,-0.21541370587572453,0.6811687847539782
1788983121274067500,12.0690673828125,0.839237824511528,-0.2689833834998309,0.6022746231939643
1788983121284027400,12.07902734375,0.6440554441511631,-0.1988144532524049,0.6085658688252792
1788983121293986300,12.088986328125,0.32896015168726445,-0.13536460212692616,0.5605533138716593
1788983121303946500,12.098946533203126,0.08249825046658515,-0.06474646680727601,0.5303420442748814
1788983121313906400,12.108906494140625,0.08134206616878509,-0.054937897237390274,0.5443310413345694
1788983121323865300,12.118865234375,-0.1175613805413246,0.1137625727802515,0.38483481831811367
1788983121333825300,12.1288251953125,-0.10231061991751193,0.20493191321939228,0.33497809680253265
1788983121343784400,12.138784423828126,-0.09427987367510796,0.24027722123637793,0.3187688664101064
1788983121353744400,12.148744384765624,-0.10614157638251781,0.2605889185115695,0.27950596482427786
1788983121363704300,12.158704345703125,-0.10843465575575828,0.27502105622887607,0.28584481245698407
1788983121373663500,12.16866357421875,-0.08815759140253067,0.30559345075562594,0.25901779673732817
1788983121383623400,12.17862353515625,-0.09053367288410663,0.3197698601461947,0.26241863642306995
1788983121393583600,12.18858349609375,0.13846914401352406,0.14450111765414475,0.12324570978805421
1788983121403542500,12.19854248046875,0.19384090262353418,0.09476809558346867,0.13397369575779886
1788983121413502500,12.20850244140625,0.19143910217881202,0.1093643378213048,0.1422597867344506
1788983121423461400,12.21846142578125,0.27147534644603727,-0.024562048196047542,0.07624987586261704
1788983121433421300,12.22842138671875,0.2740133404910564,-0.05924786939099431,0.08596504979431628
1788983121443381500,12.238381591796875,0.30463001255095,-0.10753273847997188,0.08529743446474894
1788983121453340400,12.24834033203125,0.3550993860721588,-0.12878551599755883,0.06960411770520732
1788983121463300400,12.25830029296875,0.3519832998782396,-0.11119272229224443,0.07818447892069816
1788983121473260300,12.26826025390625,0.4175239858031273,-0.22233897509425876,0.0223295581699349
1788983121483219500,12.278219482421875,0.5027759188920259,-0.25579963840842246,0.0018816124955192207
1788983121493179400,12.288179443359375,0.5129302331596612,-0.22578151676356792,0.048458636486995964
1788983121503138600,12.298138671875,0.49053486147820946,-0.23806641331911085,0.06194518218357115
1788983121513098500,12.308098388671874,0.48733226604461666,-0.22093787612468002,0.07181294372794218
1788983121523058400,12.318058349609375,0.49859015763998027,-0.47807650805190205,0.073402258746
1788983121533017300,12.328017333984375,0.5340373185962438,-0.6753603907361626,0.042355725635169074
1788983121542977300,12.337977294921876,0.62462769010365,-0.7389030347116291,-0.056858398704882705
1788983121552937500,12.3479375,0.5280050526946782,-0.5622286632053554,-0.07713423008224926
1788983121562896400,12.357896484375,0.5287374586224556,-0.5656602450892328,-0.0741755994723644
1788983121572856300,12.367856201171875,-0.9310726431220769,0.48612829708233474,0.15271018873867578
1788983121582815500,12.3778154296875,-1.8581325434714555,0.8972641892835498,0.3292312602462247
1788983121592775400,12.387775390625,-2.5474925257265566,0.9631310384228825,0.3625697219528258
1788983121602735600,12.397735595703125,-2.543823481824994,0.8824610262967646,0.4681957865612581
1788983121612694500,12.407694580078125,-2.5403888312011955,0.8615275438614189,0.441828259845823
1788983121622654500,12.417654541015626,-0.884557560184598,0.5083594181127846,0.3815852419376373
