time,seconds_elapsed,z,y,x
1788983109272712700,0.067712646484375,0.035589877516031265,0.021836068481206894,-0.030056338757276535
1788983109282671600,0.077671630859375,0.03759074956178665,0.02119472809135914,-0.02707826718688011
1788983109292631800,0.0876318359375,0.03890315815806389,0.006205392070114613,-0.02543855831027031
1788983109302591700,0.097591796875,0.04428257420659065,-0.013203255832195282,-0.018415065482258797
1788983109312550700,0.107550537109375,0.05318578705191612,-0.01679665967822075,-0.014897029846906662
1788983109322510600,0.117510498046875,0.054146908223629,-0.010513368993997574,-0.01765730232000351
1788983109332470500,0.127470458984375,0.05626705288887024,0.006180656608194113,-0.024379651993513107
1788983109342430000,0.137429931640625,0.0617661289870739,0.022851746529340744,-0.029015716165304184
1788983109352390000,0.147389892578125,0.06489214301109314,0.025508781895041466,-0.02520393393933773
1788983109362349800,0.157349853515625,0.07616057991981506,0.011193089187145233,-0.023704446852207184
1788983109372308700,0.167308837890625,0.08143949508666992,-0.006265795789659023,-0.020418904721736908
1788983109382268700,0.1772685546875,0.08387763798236847,-0.01650628075003624,-0.018887151032686234
1788983109392227600,0.1872275390625,0.08120062947273254,-0.022423824295401573,-0.013891326263546944
1788983109402187800,0.197187744140625,0.08085775375366211,-0.036264386028051376,-0.0034791023936122656
1788983109412147700,0.207147705078125,0.07426589727401733,-0.055082015693187714,0.009476909413933754
1788983109422106600,0.217106689453125,0.06621460616588593,-0.07344574481248856,0.021214619278907776
1788983109432066600,0.227066650390625,0.05631750449538231,-0.07811533659696579,0.03098682314157486
1788983109442026800,0.23702685546875,0.04867612197995186,-0.06486181169748306,0.03953259438276291
1788983109451986000,0.24698583984375,0.04121394455432892,-0.03515024855732918,0.0451851524412632
1788983109461945900,0.25694580078125,0.03810406103730202,-0.005543430335819721,0.04914288967847824
1788983109471905800,0.26690576171875,0.04144845902919769,0.015095534734427929,0.04866272211074829
1788983109481864700,0.27686474609375,0.04273943975567818,0.01326330192387104,0.04142196476459503
1788983109491825000,0.286824951171875,0.04029945284128189,0.0023376834578812122,0.036210689693689346
1788983109501783800,0.29678369140625,0.030437584966421127,-0.013333655893802643,0.03654228523373604
1788983109511743700,0.30674365234375,0.01606077514588833,-0.021421942859888077,0.03489299118518829
1788983109521703700,0.31670361328125,0.00457179918885231,-0.026232080534100533,0.036014243960380554
1788983109531662600,0.32666259765625,-0.0021114032715559006,-0.025904778391122818,0.03483552858233452
1788983109541622800,0.336622802734375,-0.0034538418985903263,-0.007159863598644733,0.034826286137104034
1788983109551582700,0.346582763671875,-0.002081248676404357,0.0271909199655056,0.034593526273965836
1788983109561542000,0.3565419921875,0.002183482749387622,0.060056768357753754,0.03154798224568367
1788983109571501800,0.366501708984375,0.005774755496531725,0.07443197816610336,0.028636615723371506
1788983109581460700,0.376460693359375,0.01229468546807766,0.06604175269603729,0.026686357334256172
1788983109591420700,0.386420654296875,0.016955481842160225,0.047101352363824844,0.027710875496268272
1788983109601380900,0.396380859375,0.021015791222453117,0.027008984237909317,0.03233974054455757
1788983109611339800,0.40633984375,0.02396976947784424,0.011054784059524536,0.028018493205308914
1788983109621299700,0.4162998046875,0.02153201773762703,0.0030960028525441885,0.014113850891590118
1788983109631259600,0.426259765625,0.020902980118989944,-0.000041999854147434235,-0.006439627148211002
1788983109641218600,0.436218505859375,0.01907496340572834,0.007856892421841621,-0.022690190002322197
1788983109651178800,0.4461787109375,0.0159516092389822,0.009156248532235622,-0.03199207782745361
1788983109661138700,0.456138671875,0.007164462469518185,0.003702809102833271,-0.02814185619354248
1788983109671097900,0.466097900390625,0.003087429329752922,-0.001509263413026929,-0.0131479911506176
1788983109681057800,0.476057861328125,0.00268017896451056,0.002676044125109911,-0.000029020942747592926
1788983109691016700,0.4860166015625,0.009941554628312588,0.015208879485726357,-0.001103872898966074
1788983109700977000,0.495976806640625,0.01186115201562643,0.03576674312353134,-0.01151049230247736
1788983109710936800,0.505936767578125,0.01598425954580307,0.051317207515239716,-0.024861717596650124
1788983109720895700,0.515895751953125,0.02096131071448326,0.057080283761024475,-0.028870845213532448
1788983109730855700,0.525855712890625,0.023811426013708115,0.044916827231645584,-0.023383667692542076
1788983109740816000,0.53581591796875,0.021807344630360603,0.023725561797618866,-0.012659613974392414
1788983109750774800,0.54577490234375,0.020074425265192986,0.009238498285412788,-0.007509859744459391
1788983109760734700,0.555734619140625,0.0185961052775383,-0.00456253532320261,-0.02030608244240284
1788983109770694700,0.565694580078125,0.018351901322603226,-0.012826450169086456,-0.04074019938707352
1788983109780653800,0.57565380859375,0.017425568774342537,-0.012547383084893227,-0.056989241391420364
1788983109790613800,0.58561376953125,0.018543297424912453,-0.009273558855056763,-0.059109386056661606
1788983109800573000,0.595572998046875,0.018651025369763374,-0.010302722454071045,-0.04997282102704048
1788983109810532900,0.605532958984375,0.01970537193119526,-0.012071328237652779,-0.03576405718922615
1788983109820492800,0.615492919921875,0.022188633680343628,-0.010370248928666115,-0.0259247999638319
1788983109830451700,0.62545166015625,0.022414734587073326,-0.006377372425049543,-0.019461041316390038
1788983109840411600,0.63541162109375,0.022165045142173767,-0.006156756542623043,-0.02041328325867653
1788983109850371800,0.645371826171875,0.019880052655935287,-0.0049676550552248955,-0.023778453469276428
1788983109860330800,0.655330810546875,0.020153673365712166,0.005010891705751419,-0.023141654208302498
1788983109870290700,0.665290771484375,0.017844712361693382,0.019111530855298042,-0.014718342572450638
1788983109880250600,0.675250732421875,0.015305242501199245,0.027727100998163223,0.001894612330943346
1788983109890209800,0.685209716796875,0.014181389473378658,0.03221239894628525,0.019544444978237152
1788983109900169700,0.695169677734375,0.014433590695261955,0.03178256377577782,0.03708775341510773
1788983109910129000,0.70512890625,0.00964469462633133,0.026411499828100204,0.05369522422552109
1788983109920088800,0.7150888671875,0.004173153545707464,0.020055178552865982,0.06799668818712234
1788983109930048800,0.725048828125,-0.001039185211993754,0.012036398984491825,0.07770897448062897
1788983109940007700,0.735007568359375,-0.008100191131234169,0.0014689097879454494,0.08064903318881989
1788983109949968000,0.7449677734375,-0.00780564546585083,-0.013634942471981049,0.0813094973564148
1788983109959928800,0.7549287109375,-0.005086648743599653,-0.029495570808649063,0.07516736537218094
1788983109969887700,0.7648876953125,-0.004161733202636242,-0.04982401058077812,0.05271665006875992
1788983109979847700,0.77484765625,-0.0054765734821558,-0.06601011753082275,0.008044928312301636
1788983109989807900,0.784807861328125,-0.00998770259320736,-0.07963698357343674,-0.05601581558585167
1788983109999766800,0.794766845703125,-0.02242308482527733,-0.07344886660575867,-0.13402149081230164
1788983110009726700,0.804726806640625,-0.039855070412158966,-0.0661478042602539,-0.20224688947200775
1788983110019685600,0.814685546875,-0.0562380850315094,-0.07249969244003296,-0.231951504945755
1788983110029645600,0.8246455078125,-0.06830060482025146,-0.09653712064027786,-0.22230394184589386
1788983110039605800,0.834605712890625,-0.07086361944675446,-0.11852853745222092,-0.17478124797344208
1788983110049565000,0.84456494140625,-0.07473026216030121,-0.12802325189113617,-0.1168481782078743
1788983110059524900,0.85452490234375,-0.07754979282617569,-0.11930946260690689,-0.0766732320189476
1788983110069484800,0.86448486328125,-0.08339808881282806,-0.08976995199918747,-0.06803207844495773
1788983110079443700,0.874443603515625,-0.08621110022068024,-0.05569463223218918,-0.08531351387500763
1788983110089404000,0.88440380859375,-0.08275458216667175,-0.012355679646134377,-0.109137624502182
1788983110099363800,0.89436376953125,-0.08151057362556458,0.047433316707611084,-0.12080229818820953
1788983110109322800,0.90432275390625,-0.08316679298877716,0.10340763628482819,-0.10544305294752121
1788983110119282700,0.91428271484375,-0.07835844159126282,0.14393404126167297,-0.07472683489322662
1788983110129241600,0.92424169921875,-0.07566864788532257,0.16473360359668732,-0.043275970965623856
1788983110139201800,0.934201904296875,-0.071323923766613,0.16866238415241241,-0.0216317530721426
1788983110149161700,0.94416162109375,-0.0655754879117012,0.16276215016841888,-0.011627854779362679
1788983110159121000,0.954120849609375,-0.05738549306988716,0.15014271438121796,-0.0026673374231904745
1788983110169080800,0.964080810546875,-0.046335771679878235,0.13587482273578644,0.0005486956797540188
1788983110179040800,0.974040771484375,-0.031439799815416336,0.111582912504673,-0.002617162885144353
1788983110188999700,0.983999755859375,-0.022934194654226303,0.08256644755601883,-0.01582510955631733
1788983110198959900,0.9939599609375,-0.022558802738785744,0.05023156851530075,-0.034186914563179016
1788983110208918800,1.003918701171875,-0.024384399875998497,0.023051345720887184,-0.050651904195547104
1788983110218878700,1.013878662109375,-0.025149747729301453,0.008478616364300251,-0.06537315249443054
1788983110228838700,1.023838623046875,-0.02103489823639393,0.0027552165556699038,-0.07861731946468353
1788983110238797600,1.033797607421875,-0.01279174443334341,0.006774338893592358,-0.09896194934844971
1788983110248757800,1.0437578125,-0.0027947702910751104,0.016539618372917175,-0.11563440412282944
1788983110258717700,1.0537177734375,0.01369023509323597,0.034568365663290024,-0.1176241859793663
1788983110268676900,1.0636767578125,0.03287963941693306,0.04194878414273262,-0.10219968855381012
1788983110278636800,1.07363671875,0.04955444112420082,0.0456339493393898,-0.06746357679367065
1788983110288597000,1.083596923828125,0.06400901079177856,0.04827580600976944,-0.02982352487742901
1788983110298556000,1.093555908203125,0.08015335351228714,0.04360182210803032,0.003488839603960514
1788983110308515800,1.103515869140625,0.08983767777681351,0.02434050664305687,0.030772391706705093
1788983110318474800,1.113474853515625,0.09915986657142639,0.009265672415494919,0.041559867560863495
1788983110328434700,1.1234345703125,0.10713469982147217,0.012719792313873768,0.04039793089032173
1788983110338395000,1.133394775390625,0.1125442236661911,0.027406934648752213,0.039976343512535095
1788983110348353800,1.143353759765625,0.11240839958190918,0.03219396620988846,0.05297629535198212
1788983110358313700,1.153313720703125,0.11202705651521683,0.036365728825330734,0.08046545088291168
1788983110368273700,1.163273681640625,0.11351150274276733,0.03864619508385658,0.10773302614688873
1788983110378232800,1.17323291015625,0.11251186579465866,0.038913410156965256,0.12429026514291763
1788983110388192800,1.18319287109375,0.10899250209331512,0.03738289326429367,0.13014256954193115
1788983110398152700,1.193152587890625,0.10561907291412354,0.023685988038778305,0.1300424337387085
1788983110408111900,1.20311181640625,0.10625903308391571,-0.0038364501670002937,0.1315212845802307
1788983110418071800,1.21307177734375,0.1005292683839798,-0.03614560887217522,0.1411813199520111
1788983110428030700,1.22303076171875,0.09288253635168076,-0.06284193694591522,0.15346169471740723
1788983110437990700,1.23299072265625,0.08335038274526596,-0.0803927630186081,0.15998104214668274
1788983110447950800,1.242950927734375,0.07277683168649673,-0.09042489528656006,0.1589605212211609
1788983110457909800,1.25290966796875,0.059384118765592575,-0.09445399791002274,0.15676720440387726
1788983110467869700,1.26286962890625,0.044156163930892944,-0.09387342631816864,0.15667666494846344
1788983110477829600,1.27282958984375,0.02578062005341053,-0.07377082109451294,0.15148669481277466
1788983110487788800,1.282788818359375,0.015766069293022156,-0.04075375571846962,0.14271557331085205
1788983110497748700,1.292748779296875,0.010117551311850548,0.0069438135251402855,0.13750769197940826
1788983110507708000,1.3027080078125,0.01307845301926136,0.06443800032138824,0.12396311014890671
1788983110517667800,1.312667724609375,0.02218928001821041,0.11124283820390701,0.08896354585886002
1788983110527627800,1.322627685546875,0.043637845665216446,0.15217269957065582,0.029188092797994614
1788983110537586700,1.332586669921875,0.07638675719499588,0.21757172048091888,-0.06152161955833435
1788983110547547000,1.342546875,0.10390093922615051,0.281083345413208,-0.19834499061107635
1788983110557506800,1.3525068359375,0.11414309591054916,0.31664350628852844,-0.36465027928352356
1788983110567465700,1.3624658203125,0.11421313881874084,0.25146663188934326,-0.48603129386901855
1788983110577425700,1.37242578125,0.08939202129840851,0.18363288044929504,-0.4952165484428406
1788983110587385600,1.382385498046875,0.04981664568185806,0.10470744222402573,-0.35639873147010803
1788983110597344800,1.3923447265625,0.02212703600525856,0.031515948474407196,-0.094302698969841
1788983110607304700,1.4023046875,0.02302026003599167,-0.02555319480597973,0.1984998732805252
1788983110617263900,1.412263916015625,0.040166255086660385,-0.02769659459590912,0.4053632915019989
1788983110627223800,1.422223876953125,0.048297151923179626,0.019965730607509613,0.4715114235877991
1788983110637183700,1.432183837890625,0.045748550444841385,0.07613454759120941,0.44778895378112793
1788983110647143000,1.442142822265625,0.04564282298088074,0.15463975071907043,0.4164954721927643
1788983110657102800,1.452102783203125,0.04393667355179787,0.21505770087242126,0.4084536135196686
1788983110667062800,1.462062744140625,0.04250575974583626,0.23852014541625977,0.40225324034690857
1788983110677021700,1.472021728515625,0.04266763851046562,0.23861953616142273,0.3908715546131134
1788983110686981600,1.481981689453125,0.046838682144880295,0.21891480684280396,0.37358206510543823
1788983110696941800,1.49194189453125,0.05259419232606888,0.1914234310388565,0.3475620746612549
1788983110706900700,1.501900634765625,0.058290958404541016,0.16391031444072723,0.30002516508102417
1788983110716860700,1.511860595703125,0.07387697696685791,0.12969987094402313,0.21624691784381866
1788983110726819800,1.52181982421875,0.10006863623857498,0.10736261308193207,0.08801892399787903
1788983110736779800,1.53177978515625,0.13209502398967743,0.10303927958011627,-0.07117317616939545
1788983110746740000,1.541739990234375,0.1684330701828003,0.07170559465885162,-0.2263886034488678
1788983110756699000,1.551698974609375,0.20638275146484375,0.03193826973438263,-0.34876906871795654
1788983110766658800,1.561658935546875,0.23506739735603333,-0.014759725891053677,-0.421661376953125
1788983110776618800,1.57161865234375,0.24764731526374817,-0.049610063433647156,-0.4444083571434021
1788983110786577700,1.58157763671875,0.24309277534484863,-0.07022878527641296,-0.4275585412979126
1788983110796537900,1.591537841796875,0.23347985744476318,-0.08776633441448212,-0.3700109124183655
1788983110806496800,1.601496826171875,0.20839181542396545,-0.11880361288785934,-0.2729527950286865
1788983110816456700,1.611456787109375,0.17831934988498688,-0.154653862118721,-0.13467510044574738
1788983110826416600,1.621416748046875,0.149322047829628,-0.19083690643310547,0.02973194606602192
1788983110836375800,1.631375732421875,0.12291194498538971,-0.20189328491687775,0.1871609091758728
1788983110846335700,1.641335693359375,0.0921843945980072,-0.17058835923671722,0.2922881245613098
1788983110856296000,1.6512958984375,0.05590176582336426,-0.11581189185380936,0.32264453172683716
1788983110866254800,1.6612548828125,0.02264580689370632,-0.06744275987148285,0.2877366244792938
1788983110876214800,1.67121484375,0.007433997467160225,-0.02463691122829914,0.21205365657806396
1788983110886174700,1.6811748046875,-0.0011847906280308962,0.01750095561146736,0.11367222666740417
1788983110896133600,1.691133544921875,0.004497808869928122,0.06000223010778427,0.011771400459110737
1788983110906093800,1.70109375,0.017902830615639687,0.0876903161406517,-0.07609453797340393
1788983110916052700,1.711052734375,0.036331020295619965,0.08520901203155518,-0.13497067987918854
1788983110926012700,1.7210126953125,0.05496915429830551,0.034484319388866425,-0.15972448885440826
1788983110935972600,1.73097265625,0.06829433143138885,-0.030460210517048836,-0.15845386683940887
1788983110945931800,1.740931884765625,0.07303955405950546,-0.08857864141464233,-0.13725723326206207
1788983110955892000,1.75089208984375,0.0700904130935669,-0.12620076537132263,-0.11071199923753738
1788983110965851600,1.7608515625,0.06356220692396164,-0.14955882728099823,-0.0836726576089859
1788983110975810600,1.770810546875,0.048229917883872986,-0.1570950299501419,-0.057339515537023544
1788983110985770500,1.7807705078125,0.036011867225170135,-0.14801685512065887,-0.029669003561139107
1788983110995729400,1.7907294921875,0.027167823165655136,-0.1336175948381424,-0.0068719033151865005
1788983111005689600,1.800689697265625,0.01683608815073967,-0.10681713372468948,0.010715346783399582
1788983111015649500,1.8106494140625,0.0010642562992870808,-0.06533493101596832,0.036945272237062454
1788983111025608400,1.8206083984375,-0.011784696951508522,-0.03801222890615463,0.07045343518257141
1788983111035568400,1.830568359375,-0.025196794420480728,-0.025653192773461342,0.09843111038208008
1788983111045528300,1.8405283203125,-0.040167756378650665,-0.03112545795738697,0.1157323345541954
1788983111055487700,1.85048779296875,-0.04555927589535713,-0.048384785652160645,0.11130446940660477
1788983111065447700,1.86044775390625,-0.04313766583800316,-0.06872707605361938,0.0969092845916748
1788983111075407600,1.87040771484375,-0.04136592894792557,-0.09096578508615494,0.08650477230548859
1788983111085366500,1.880366455078125,-0.03850143030285835,-0.10631118714809418,0.08287195861339569
1788983111095326500,1.890326416015625,-0.030371209606528282,-0.11052726209163666,0.08823411911725998
1788983111105285400,1.900285400390625,-0.01994440145790577,-0.09626176953315735,0.10549619793891907
1788983111115245600,1.91024560546875,-0.008015220984816551,-0.0558306984603405,0.13840463757514954
1788983111125205500,1.92020556640625,0.006590087432414293,0.00458923727273941,0.17911797761917114
1788983111135164400,1.930164306640625,0.013450329191982746,0.06306720525026321,0.22057107090950012
1788983111145124400,1.940124267578125,0.020740201696753502,0.09438970685005188,0.2543833553791046
1788983111155084500,1.95008447265625,0.01806332729756832,0.08659105747938156,0.27572840452194214
1788983111165043700,1.960043701171875,0.008117220364511013,0.03874417021870613,0.2827695310115814
1788983111175003600,1.970003662109375,-0.003890912514179945,-0.03421793133020401,0.2734717130661011
1788983111184962600,1.979962646484375,-0.02324570156633854,-0.1244109496474266,0.24971498548984528
1788983111194922500,1.989922607421875,-0.038970474153757095,-0.21748855710029602,0.21518516540527344
1788983111204882700,1.999882568359375,-0.04448827728629112,-0.29855650663375854,0.16100502014160156
1788983111214841600,2.009841552734375,-0.04768511280417442,-0.35340002179145813,0.07743579149246216
1788983111224801500,2.019801513671875,-0.05940115451812744,-0.362186074256897,-0.02226151153445244
1788983111234761500,2.029761474609375,-0.08020046353340149,-0.3345012068748474,-0.1178005114197731
1788983111244720400,2.039720458984375,-0.10127245634794235,-0.25368279218673706,-0.18559792637825012
1788983111254680600,2.0496806640625,-0.11766739934682846,-0.14444561302661896,-0.21492475271224976
1788983111264639700,2.0596396484375,-0.11011254787445068,-0.05415273457765579,-0.2054031640291214
1788983111274599700,2.069599609375,-0.09348051995038986,0.03801257163286209,-0.1660994589328766
1788983111284559600,2.0795595703125,-0.08360365778207779,0.14053069055080414,-0.10076147317886353
1788983111294518500,2.0895185546875,-0.08659792691469193,0.21112866699695587,-0.010257169604301453
1788983111304478500,2.099478515625,-0.08255817741155624,0.21549518406391144,0.08346479386091232
1788983111314438700,2.109438720703125,-0.06883459538221359,0.16689340770244598,0.15833905339241028
1788983111324397600,2.1193974609375,-0.0647415816783905,0.0895080715417862,0.19307653605937958
1788983111334357500,2.129357421875,-0.07806617766618729,0.012743249535560608,0.19140273332595825
1788983111344317400,2.1393173828125,-0.09451146423816681,-0.047328341752290726,0.1809205263853073
1788983111354276400,2.1492763671875,-0.09843815118074417,-0.09616471081972122,0.18824028968811035
1788983111364236500,2.159236572265625,-0.09471665322780609,-0.1174369752407074,0.21377681195735931
1788983111374195500,2.169195556640625,-0.09226531535387039,-0.12239331752061844,0.24648556113243103
1788983111384155400,2.1791552734375,-0.09187782555818558,-0.12245084345340729,0.26959407329559326
1788983111394115300,2.189115234375,-0.09647586196660995,-0.1378684788942337,0.2655954360961914
1788983111404074500,2.199074462890625,-0.10007032752037048,-0.1685694009065628,0.22078830003738403
1788983111414034700,2.20903466796875,-0.11157337576150894,-0.19464519619941711,0.13459554314613342
1788983111423994600,2.21899462890625,-0.13090980052947998,-0.22338469326496124,0.009284229949116707
1788983111433953500,2.22895361328125,-0.15082894265651703,-0.23015810549259186,-0.13888074457645416
1788983111443913500,2.23891357421875,-0.1723318248987198,-0.2142409235239029,-0.2790471613407135
1788983111453873700,2.248873779296875,-0.19148951768875122,-0.19650423526763916,-0.39490804076194763
1788983111463832600,2.25883251953125,-0.19229033589363098,-0.15113940834999084,-0.4892849028110504
1788983111473792500,2.26879248046875,-0.17580240964889526,-0.06913939118385315,-0.5628814697265625
1788983111483751400,2.27875146484375,-0.1512637734413147,0.05930805578827858,-0.5893018841743469
1788983111493711400,2.28871142578125,-0.11990609019994736,0.2094224989414215,-0.5346940755844116
1788983111503671300,2.29867138671875,-0.08120210468769073,0.3170432150363922,-0.38226380944252014
1788983111513630700,2.308630615234375,-0.025559304282069206,0.35466286540031433,-0.1567026823759079
1788983111523590700,2.318590576171875,0.03501216694712639,0.3373248875141144,0.06981408596038818
1788983111533550600,2.328550537109375,0.07620858401060104,0.29312729835510254,0.22003479301929474
1788983111543509500,2.338509521484375,0.09688909351825714,0.2188328355550766,0.26647475361824036
1788983111553469400,2.348469482421875,0.10960958898067474,0.13567490875720978,0.2552691400051117
1788983111563428400,2.358428466796875,0.1063634604215622,0.05494624748826027,0.21516618132591248
1788983111573388500,2.368388427734375,0.0858127698302269,-0.023491322994232178,0.1647130250930786
1788983111583348500,2.378348388671875,0.0638616681098938,-0.07556571066379547,0.10617461055517197
1788983111593307400,2.388307373046875,0.039769794791936874,-0.09898059070110321,0.03607238084077835
1788983111603267300,2.398267333984375,0.008320792578160763,-0.08322586864233017,-0.0519525520503521
1788983111613227500,2.4082275390625,-0.031109698116779327,-0.04308683052659035,-0.1471644937992096
1788983111623186700,2.418186767578125,-0.06651961803436279,0.0041091786697506905,-0.2198919653892517
1788983111633146600,2.428146728515625,-0.09388868510723114,0.0424736924469471,-0.24881842732429504
1788983111643105500,2.43810546875,-0.11056859791278839,0.06817692518234253,-0.2385796308517456
1788983111653065500,2.4480654296875,-0.12360768020153046,0.07428333163261414,-0.217222198843956
1788983111663025700,2.458025634765625,-0.1191285103559494,0.06431511789560318,-0.20763055980205536
1788983111672984600,2.467984619140625,-0.10774748772382736,0.05425316095352173,-0.20272475481033325
1788983111682944500,2.477944580078125,-0.09411317110061646,0.042749904096126556,-0.1901165395975113
1788983111692904400,2.487904541015625,-0.07434267550706863,0.029441533610224724,-0.163766011595726
1788983111702863400,2.49786328125,-0.04711371287703514,0.02189546637237072,-0.12421780824661255
1788983111712823600,2.507823486328125,-0.014190147630870342,0.013324426487088203,-0.07711635529994965
1788983111722783500,2.517783447265625,0.01647242344915867,-0.0030351048335433006,-0.03709862753748894
1788983111732742700,2.52774267578125,0.04445071145892143,-0.021846376359462738,-0.020737262442708015
1788983111742702600,2.53770263671875,0.06746761500835419,-0.026466427370905876,-0.028555503115057945
1788983111752661500,2.54766162109375,0.084827721118927,-0.029838744550943375,-0.04110036790370941
1788983111762621400,2.557621337890625,0.09875524789094925,-0.027255479246377945,-0.04803737252950668
1788983111772581600,2.56758154296875,0.1089109405875206,-0.016415752470493317,-0.04195636138319969
1788983111782540500,2.57754052734375,0.1136377826333046,-0.00028631859458982944,-0.03425662964582443
1788983111792500500,2.58750048828125,0.10602238774299622,0.012876559980213642,-0.02570057474076748
1788983111802460400,2.59746044921875,0.09285864979028702,0.019419414922595024,-0.011433487758040428
1788983111812419300,2.60741943359375,0.0774286761879921,0.012400098145008087,0.006721436511725187
1788983111822379500,2.617379638671875,0.06277303397655487,0.0023487957660108805,0.024838389828801155
1788983111832339500,2.62733935546875,0.046350207179784775,-0.003279229160398245,0.03325534239411354
1788983111842298600,2.637298583984375,0.032880473881959915,-0.006714973133057356,0.03654567897319794
1788983111852258600,2.647258544921875,0.023407889530062675,-0.0029855810571461916,0.035323720425367355
1788983111862217500,2.657217529296875,0.015425595454871655,0.0209857989102602,0.03477058187127113
1788983111872177700,2.667177734375,0.005595845635980368,0.05740261822938919,0.039160046726465225
1788983111882137600,2.6771376953125,-0.004790748935192823,0.09437128901481628,0.05308465287089348
1788983111892096500,2.687096435546875,-0.00953857135027647,0.11669362336397171,0.07289492338895798
1788983111902056400,2.697056396484375,-0.010901310481131077,0.13147763907909393,0.09352882951498032
1788983111912016600,2.7070166015625,-0.017764460295438766,0.13692410290241241,0.10631363093852997
1788983111921975600,2.7169755859375,-0.022397560998797417,0.13925489783287048,0.11498808115720749
1788983111931935500,2.726935546875,-0.027873370796442032,0.12750740349292755,0.11177707463502884
1788983111941894700,2.736894775390625,-0.030166085809469223,0.11681745946407318,0.10141071677207947
1788983111951854600,2.7468544921875,-0.030453501269221306,0.12073525786399841,0.09274818003177643
1788983111961814500,2.756814453125,-0.035387273877859116,0.12608660757541656,0.09044773876667023
1788983111971773700,2.766773681640625,-0.03638686612248421,0.1351604461669922,0.09314526617527008
1788983111981733600,2.776733642578125,-0.03453650325536728,0.159644216299057,0.09964151680469513
1788983111991693800,2.78669384765625,-0.03729581832885742,0.1853310465812683,0.102182537317276
1788983112001652700,2.79665283203125,-0.02729910798370838,0.19865670800209045,0.07172050327062607
1788983112011612700,2.80661279296875,0.01892654225230217,0.22566081583499908,-0.01689092256128788
1788983112021572600,2.816572509765625,0.09144388884305954,0.2565407156944275,-0.17718711495399475
1788983112031531500,2.826531494140625,0.1409335732460022,0.28418251872062683,-0.42581525444984436
1788983112041491700,2.83649169921875,0.13007932901382446,0.25533223152160645,-0.7113841772079468
1788983112051450600,2.84645068359375,0.07497972249984741,0.16643337905406952,-0.9220636487007141
1788983112061410600,2.85641064453125,0.01322634145617485,0.06423403322696686,-0.893686056137085
1788983112071370500,2.86637060546875,-0.0334220752120018,-0.08803515136241913,-0.605254054069519
1788983112081329700,2.87632958984375,-0.04014682024717331,-0.2489638477563858,-0.14286725223064423
1788983112091289900,2.886289794921875,0.0011044854763895273,-0.37239351868629456,0.3128691613674164
1788983112101249800,2.896249755859375,0.0607539638876915,-0.36329615116119385,0.5986599326133728
1788983112111208700,2.906208740234375,0.10592302680015564,-0.30026301741600037,0.6853280663490295
1788983112121168600,2.916168701171875,0.1401209533214569,-0.22649213671684265,0.6494073271751404
1788983112131127600,2.92612744140625,0.19186151027679443,-0.10536476224660873,0.572006106376648
1788983112141087500,2.93608740234375,0.23156630992889404,0.017036788165569305,0.47973498702049255
1788983112151047700,2.946047607421875,0.24222709238529205,0.12672775983810425,0.3712398409843445
1788983112161006600,2.956006591796875,0.22503691911697388,0.21053797006607056,0.24056652188301086
1788983112170966500,2.965966552734375,0.20569643378257751,0.242886021733284,0.079704649746418
1788983112180926500,2.975926513671875,0.19164985418319702,0.22869165241718292,-0.10300737619400024
1788983112190885600,2.9858857421875,0.17589084804058075,0.17773734033107758,-0.2758012115955353
1788983112200845800,2.995845703125,0.15552112460136414,0.10752788931131363,-0.3967268466949463
1788983112210804700,3.0058046875,0.16072191298007965,-0.025492552667856216,-0.4743505120277405
1788983112220764700,3.0157646484375,0.1880885511636734,-0.13420704007148743,-0.5291088223457336
1788983112230724600,3.025724609375,0.18569470942020416,-0.19205422699451447,-0.5641952753067017
1788983112240683500,3.03568359375,0.13862866163253784,-0.2308381199836731,-0.5475707650184631
1788983112250643700,3.045643798828125,0.10245911777019501,-0.23602306842803955,-0.444938987493515
1788983112260603600,3.055603759765625,0.08998407423496246,-0.24994981288909912,-0.23622973263263702
1788983112270562600,3.0655625,0.08682925999164581,-0.2795070707798004,0.047721028327941895
1788983112280522500,3.0755224609375,0.092559315264225,-0.28089165687561035,0.3206702768802643
1788983112290482700,3.085482666015625,0.10493665188550949,-0.2096596360206604,0.5107954740524292
1788983112300441900,3.09544189453125,0.10048544406890869,-0.12250981479883194,0.5829035043716431
1788983112310401800,3.10540185546875,0.08895182609558105,-0.051104072481393814,0.5549858808517456
1788983112320360700,3.115360595703125,0.08585857599973679,0.0035122008994221687,0.4705345332622528
1788983112330320600,3.125320556640625,0.0782555490732193,0.0559522807598114,0.34931430220603943
1788983112340280600,3.135280517578125,0.06552830338478088,0.10309955477714539,0.22001169621944427
1788983112350239700,3.14523974609375,0.048975419253110886,0.1364378035068512,0.09674010425806046
1788983112360199700,3.15519970703125,0.04316280409693718,0.13805487751960754,-0.0033697234466671944
1788983112370159600,3.16515966796875,0.03764002397656441,0.11568409204483032,-0.07846098393201828
1788983112380118500,3.175118408203125,0.03228920325636864,0.0976257249712944,-0.1209823414683342
1788983112390078500,3.185078369140625,0.02778404764831066,0.08638888597488403,-0.1384136974811554
1788983112400037600,3.19503759765625,0.02795209363102913,0.0751948207616806,-0.13327832520008087
1788983112409997800,3.204997802734375,0.028989281505346298,0.07300666719675064,-0.11304106563329697
1788983112419957800,3.214957763671875,0.03475156053900719,0.07425915449857712,-0.0804692730307579
1788983112429916700,3.224916748046875,0.03952554240822792,0.07580085843801498,-0.0464300736784935
1788983112439876600,3.234876708984375,0.04265209287405014,0.07637609541416168,-0.01682744175195694
1788983112449836800,3.2448369140625,0.042802661657333374,0.07427079975605011,0.0034671113826334476
1788983112459795700,3.254795654296875,0.042277753353118896,0.07442286610603333,0.011242210865020752
1788983112469755600,3.264755615234375,0.03911072760820389,0.05523962527513504,0.014112425968050957
1788983112479715600,3.274715576171875,0.03459533676505089,0.0095597542822361,0.01714683137834072
1788983112489674500,3.284674560546875,0.030818112194538116,-0.04194634035229683,0.02281942591071129
1788983112499634700,3.294634765625,0.02115722745656967,-0.08798679709434509,0.023814115673303604
1788983112509593600,3.304593505859375,0.008326551876962185,-0.11754675954580307,0.01854591630399227
1788983112519553500,3.314553466796875,-0.00032312871189787984,-0.12088742852210999,0.00933217816054821
1788983112529513500,3.324513427734375,-0.01017860509455204,-0.10706638544797897,0.006322306580841541
1788983112539472600,3.33447265625,-0.012086493894457817,-0.08409715443849564,0.011625991202890873
1788983112549432800,3.344432861328125,-0.002708104904741049,-0.052830182015895844,0.02053067274391651
1788983112559392800,3.354392822265625,0.012622647918760777,-0.020047467201948166,0.034507475793361664
1788983112569351700,3.3643515625,0.03147706016898155,-0.000603127758949995,0.047557029873132706
1788983112579311600,3.3743115234375,0.041775770485401154,0.0011569553753361106,0.057955075055360794
1788983112589270500,3.3842705078125,0.045794084668159485,-0.0008256193250417709,0.0728488638997078
1788983112599230500,3.39423046875,0.03768689185380936,-0.009075293317437172,0.09407905489206314
1788983112609190700,3.404190673828125,0.027682140469551086,-0.03084728494286537,0.12948042154312134
1788983112619149600,3.414149658203125,0.01603027805685997,-0.06035484001040459,0.17525935173034668
1788983112629109500,3.424109619140625,0.004067487083375454,-0.09727678447961807,0.20873071253299713
1788983112639069400,3.4340693359375,-0.016353100538253784,-0.1361408233642578,0.2196051925420761
1788983112649028600,3.444028564453125,-0.03737320750951767,-0.16736647486686707,0.21723560988903046
1788983112658988800,3.45398876953125,-0.055508535355329514,-0.1996850073337555,0.2143109291791916
1788983112668948700,3.46394873046875,-0.04855405539274216,-0.2517271041870117,0.1904038041830063
1788983112678907600,3.47390771484375,-0.02288970537483692,-0.3076516389846802,0.09956762939691544
1788983112688867600,3.48386767578125,-0.006520936265587807,-0.3391672372817993,-0.07438209652900696
1788983112698826500,3.493826416015625,-0.019039656966924667,-0.3576647639274597,-0.2766135036945343
1788983112708786700,3.50378662109375,-0.035943783819675446,-0.33588963747024536,-0.4123503267765045
1788983112718746600,3.51374658203125,-0.0511496365070343,-0.32273760437965393,-0.45505622029304504
1788983112728705500,3.52370556640625,-0.04339450225234032,-0.28961265087127686,-0.4477987587451935
1788983112738665500,3.53366552734375,-0.018187683075666428,-0.23598192632198334,-0.41259869933128357
1788983112748625700,3.543625732421875,-0.018714135512709618,-0.15035414695739746,-0.38698631525039673
1788983112758584800,3.553584716796875,-0.03100622072815895,-0.04629165679216385,-0.3411831259727478
1788983112768544800,3.563544677734375,-0.04096246883273125,0.07735315710306168,-0.22820188105106354
1788983112778503700,3.573503662109375,-0.03999707102775574,0.2102653980255127,-0.029265612363815308
1788983112788463600,3.583463623046875,-0.020463328808546066,0.28264209628105164,0.231766939163208
1788983112798423600,3.593423583984375,0.00576268183067441,0.29301273822784424,0.4544767141342163
1788983112808382700,3.6033828125,0.019342511892318726,0.2722848653793335,0.5878462195396423
1788983112818342700,3.6133427734375,0.01013916078954935,0.2339809089899063,0.6434809565544128
1788983112828302600,3.623302490234375,0.00013481953646987677,0.1501474380493164,0.6367115378379822
1788983112838261500,3.633261474609375,0.005966609809547663,0.017494581639766693,0.5658304691314697
1788983112848221400,3.643221435546875,0.026485908776521683,-0.13634921610355377,0.4160557985305786
1788983112858181600,3.653181640625,0.040392402559518814,-0.24844644963741302,0.17254754900932312
1788983112868140800,3.663140869140625,0.0341002494096756,-0.2768198549747467,-0.1352124810218811
1788983112878100700,3.673100830078125,0.013190442696213722,-0.25645971298217773,-0.3896109461784363
1788983112888059600,3.6830595703125,-0.027294589206576347,-0.24230217933654785,-0.4901476800441742
1788983112898019600,3.69301953125,-0.05902934819459915,-0.24122175574302673,-0.4652908146381378
1788983112907979800,3.702979736328125,-0.07496347278356552,-0.24037864804267883,-0.3916824162006378
1788983112917938700,3.712938720703125,-0.09148359298706055,-0.2206835150718689,-0.34194281697273254
1788983112927898600,3.722898681640625,-0.11120710521936417,-0.1498241275548935,-0.3270300030708313
1788983112937858600,3.732858642578125,-0.1357010006904602,-0.0183958038687706,-0.3154734671115875
1788983112947817500,3.7428173828125,-0.15542687475681305,0.14804206788539886,-0.25594180822372437
1788983112957777700,3.752777587890625,-0.16408640146255493,0.2853349447250366,-0.12410573661327362
1788983112967736000,3.762736083984375,-0.1451091170310974,0.37648820877075195,0.060167860239744186
1788983112977696000,3.772696044921875,-0.11565587669610977,0.38698771595954895,0.24082845449447632
1788983112987656000,3.782656005859375,-0.0836157277226448,0.32614004611968994,0.3643219769001007
1788983112997614800,3.79261474609375,-0.053523607552051544,0.22839699685573578,0.4105810821056366
1788983113007575000,3.802574951171875,-0.024237006902694702,0.16000784933567047,0.3838227391242981
1788983113017535000,3.812534912109375,0.000721074000466615,0.11997281014919281,0.30525895953178406
1788983113027494000,3.822493896484375,0.0218959953635931,0.09035245329141617,0.195184588432312
1788983113037453800,3.832453857421875,0.038581233471632004,0.07858075201511383,0.07456336915493011
1788983113047413000,3.8424130859375,0.056407034397125244,0.09647732973098755,-0.0416555181145668
1788983113057373000,3.852373046875,0.05602860078215599,0.1312587410211563,-0.13263095915317535
1788983113067332900,3.862332763671875,0.04384559392929077,0.18256179988384247,-0.18968677520751953
1788983113077292000,3.8722919921875,0.028777962550520897,0.21541908383369446,-0.20918937027454376
1788983113087252000,3.882251953125,0.01880330592393875,0.21881210803985596,-0.19137072563171387
1788983113097212000,3.8922119140625,0.010448968969285488,0.21112196147441864,-0.1510653793811798
1788983113107170800,3.9021708984375,0.003729342482984066,0.1990109533071518,-0.11557601392269135
1788983113117131000,3.912131103515625,-0.0013149508740752935,0.17076440155506134,-0.09397430717945099
1788983113127091000,3.922091064453125,0.0020410583820194006,0.13524174690246582,-0.08595605194568634
1788983113137049900,3.9320498046875,0.022127684205770493,0.10552780330181122,-0.08883839100599289
1788983113147009800,3.942009765625,0.04236681014299393,0.08170375972986221,-0.09011638164520264
1788983113156969000,3.951968994140625,0.058170806616544724,0.06987746059894562,-0.08529339730739594
1788983113166929000,3.961928955078125,0.08002833276987076,0.06365824490785599,-0.06659208238124847
1788983113176888800,3.971888916015625,0.09337104111909866,0.04720976576209068,-0.033027730882167816
1788983113186848000,3.981847900390625,0.10180304944515228,0.02726997435092926,0.013003325089812279
1788983113196808000,3.991807861328125,0.10942288488149643,0.0056174080818891525,0.04905480518937111
1788983113206768000,4.00176806640625,0.10871905833482742,-0.005406394600868225,0.06493381410837173
1788983113216727000,4.01172705078125,0.09726959466934204,-0.01391812413930893,0.06429065763950348
1788983113226687000,4.02168701171875,0.08098315447568893,-0.017365342006087303,0.060749076306819916
1788983113236646000,4.03164599609375,0.06123554706573486,-0.018699051812291145,0.06351317465305328
1788983113246605800,4.041605712890625,0.03790769726037979,-0.02762695774435997,0.07367365062236786
1788983113256566000,4.05156591796875,0.014237787574529648,-0.04428449645638466,0.08922704309225082
1788983113266525000,4.06152490234375,-0.010862056165933609,-0.06725882738828659,0.09851105511188507
1788983113276484900,4.07148486328125,-0.04247404634952545,-0.09422492980957031,0.09979309886693954
1788983113286444800,4.08144482421875,-0.07002830505371094,-0.13152021169662476,0.10371732711791992
1788983113296404000,4.091404052734375,-0.08947709947824478,-0.1455090045928955,0.12057167291641235
1788983113306364000,4.101364013671875,-0.10856013000011444,-0.13397035002708435,0.13744989037513733
1788983113316323000,4.111322998046875,-0.12794475257396698,-0.09134937822818756,0.1522141844034195
1788983113326283000,4.121282958984375,-0.1362406462430954,-0.026149822399020195,0.15751135349273682
1788983113336243000,4.131242919921875,-0.14475637674331665,0.04898354038596153,0.1574559509754181
1788983113346201900,4.141201904296875,-0.15402397513389587,0.11966067552566528,0.1742786467075348
1788983113356161800,4.151161865234375,-0.17099523544311523,0.15925416350364685,0.21371473371982574
1788983113366122000,4.1611220703125,-0.18859753012657166,0.19451160728931427,0.276602566242218
1788983113376081000,4.171080810546875,-0.2083430141210556,0.2167828232049942,0.3294777572154999
1788983113386040800,4.181040771484375,-0.20785211026668549,0.21189461648464203,0.3031843900680542
1788983113396000800,4.191000732421875,-0.18053339421749115,0.2099912464618683,0.17230789363384247
1788983113405960000,4.2009599609375,-0.13103435933589935,0.22687877714633942,-0.06291861832141876
1788983113415920000,4.210920166015625,-0.08373208343982697,0.26422828435897827,-0.4238309860229492
1788983113425879000,4.220879150390625,-0.09935341030359268,0.30033376812934875,-0.8413935899734497
1788983113435839000,4.2308388671875,-0.18439160287380219,0.25318780541419983,-1.1737611293792725
1788983113445799000,4.240798828125,-0.2983890175819397,0.2381441593170166,-1.2626243829727173
1788983113455757800,4.2507578125,-0.3983832597732544,0.19234125316143036,-1.0376818180084229
1788983113465718000,4.260718017578125,-0.4389374554157257,0.19699998199939728,-0.5082118511199951
1788983113475678000,4.270677978515625,-0.41730937361717224,0.24136504530906677,0.1726018786430359
1788983113485636900,4.280636962890625,-0.38403671979904175,0.23166561126708984,0.7692645192146301
1788983113495596800,4.2905966796875,-0.36689770221710205,0.18958286941051483,1.1014097929000854
1788983113505556000,4.300555908203125,-0.3562127649784088,0.16187560558319092,1.15321946144104
1788983113515516200,4.31051611328125,-0.34765470027923584,0.1297919750213623,0.976803183555603
1788983113525476000,4.32047607421875,-0.3597204089164734,0.12554264068603516,0.6447961926460266
1788983113535435000,4.33043505859375,-0.40833401679992676,0.1172197163105011,0.23490747809410095
1788983113545395000,4.34039501953125,-0.48881325125694275,0.08998042345046997,-0.1557181179523468
1788983113555355000,4.35035498046875,-0.5756102204322815,0.0018745384877547622,-0.4068259596824646
1788983113565313800,4.360313720703125,-0.6538434028625488,-0.12217095494270325,-0.46813130378723145
1788983113575274000,4.37027392578125,-0.7336708307266235,-0.20310361683368683,-0.38699862360954285
1788983113585234000,4.38023388671875,-0.8042696118354797,-0.20116911828517914,-0.23988838493824005
1788983113595192800,4.39019287109375,-0.8637499809265137,-0.18486125767230988,-0.07559585571289062
1788983113605152800,4.40015283203125,-0.9236589074134827,-0.15307769179344177,0.07940996438264847
1788983113615112000,4.41011181640625,-0.9803629517555237,-0.11853169649839401,0.20994427800178528
1788983113625072000,4.420072021484375,-1.040070652961731,-0.07022489607334137,0.28590285778045654
1788983113635032000,4.430031982421875,-1.0945048332214355,-0.024237703531980515,0.2879478931427002
1788983113644991000,4.439990966796875,-1.1430128812789917,0.021854598075151443,0.2389146387577057
1788983113654951000,4.449950927734375,-1.1861441135406494,0.06463082134723663,0.18017303943634033
1788983113664911000,4.4599111328125,-1.2340545654296875,0.07486400008201599,0.14419175684452057
1788983113674870000,4.4698701171875,-1.2846343517303467,0.05398162081837654,0.13829685747623444
1788983113684830000,4.479829833984375,-1.3390250205993652,0.0038273504469543695,0.1365654170513153
1788983113694788900,4.489788818359375,-1.3935996294021606,-0.054729435592889786,0.12378810346126556
1788983113704748800,4.499748779296875,-1.4583921432495117,-0.10001613199710846,0.09091927856206894
1788983113714709000,4.509708984375,-1.5274550914764404,-0.12259814888238907,0.04350249841809273
1788983113724668000,4.51966796875,-1.6099985837936401,-0.14086247980594635,-0.012128294445574284
1788983113734627800,4.5296279296875,-1.6954290866851807,-0.14096927642822266,-0.07626494020223618
1788983113744587800,4.539587890625,-1.7872765064239502,-0.11875663697719574,-0.14213138818740845
1788983113754547000,4.549546875,-1.8778185844421387,-0.07204665243625641,-0.18395952880382538
1788983113764507000,4.5595068359375,-1.9594957828521729,-0.008980516344308853,-0.18982486426830292
1788983113774466000,4.569466064453125,-2.0202722549438477,0.06149444729089737,-0.1474238783121109
1788983113784426000,4.579426025390625,-2.0622637271881104,0.1074502021074295,-0.07521184533834457
1788983113794386000,4.589385986328125,-2.09328293800354,0.13755910098552704,0.011379502713680267
1788983113804344800,4.5993447265625,-2.103886604309082,0.14022383093833923,0.09878193587064743
1788983113814304800,4.6093046875,-2.0886595249176025,0.1008540540933609,0.1650107502937317
1788983113824265000,4.619264892578125,-2.063584804534912,0.03952495753765106,0.21634775400161743
1788983113834223900,4.629223876953125,-2.0349395275115967,-0.012651161290705204,0.25763019919395447
1788983113844183800,4.639183837890625,-2.026276111602783,-0.08565836399793625,0.2852388322353363
1788983113854143700,4.649143798828125,-2.0362167358398438,-0.19304127991199493,0.2966611385345459
1788983113864103000,4.65910302734375,-2.0486936569213867,-0.3143463134765625,0.2960619032382965
1788983113874063000,4.66906298828125,-2.066753387451172,-0.44207310676574707,0.27630072832107544
1788983113884022000,4.67902197265625,-2.085224151611328,-0.5631526708602905,0.24652116000652313
1788983113893982000,4.68898193359375,-2.106311559677124,-0.6656050086021423,0.22129224240779877
1788983113903942000,4.69894189453125,-2.1365580558776855,-0.7489625811576843,0.2084035575389862
1788983113913900800,4.70890087890625,-2.1765894889831543,-0.8095406889915466,0.20919343829154968
1788983113923861000,4.718861083984375,-2.2096381187438965,-0.8476632237434387,0.21995683014392853
1788983113933821000,4.728821044921875,-2.2312967777252197,-0.8597710728645325,0.25114935636520386
1788983113943779800,4.73877978515625,-2.236894130706787,-0.8312206864356995,0.3065103590488434
1788983113953739800,4.74873974609375,-2.2398571968078613,-0.7496621608734131,0.38915836811065674
1788983113963699200,4.75869921875,-2.2397665977478027,-0.644105076789856,0.4830493628978729
1788983113973659100,4.7686591796875,-2.245342493057251,-0.5391107201576233,0.578342080116272
1788983113983619000,4.778619140625,-2.236903667449951,-0.5066457986831665,0.6290649175643921
1788983113993578000,4.788577880859375,-2.1963372230529785,-0.5757479071617126,0.582897961139679
1788983114003538200,4.7985380859375,-2.147932529449463,-0.6786551475524902,0.4041943848133087
1788983114013498000,4.808498046875,-2.0799694061279297,-0.8157059550285339,0.10227552801370621
1788983114023457000,4.81845703125,-2.060110092163086,-0.9140767455101013,-0.2398557960987091
1788983114033417000,4.8284169921875,-2.096122980117798,-0.9465010166168213,-0.46239033341407776
1788983114043375900,4.8383759765625,-2.1489009857177734,-0.9506012797355652,-0.5115061402320862
1788983114053335800,4.848335693359375,-2.198214054107666,-0.9666894674301147,-0.40777871012687683
1788983114063296000,4.8582958984375,-2.2041499614715576,-0.9368192553520203,-0.19831383228302002
1788983114073255200,4.868255126953125,-2.160796642303467,-0.8377422094345093,0.019545789808034897
1788983114083215000,4.878215087890625,-2.097867012023926,-0.6472833156585693,0.15871348977088928
1788983114093175000,4.888175048828125,-2.0436413288116455,-0.4150533080101013,0.19258730113506317
1788983114103134000,4.898134033203125,-1.983835220336914,-0.2096034437417984,0.15320084989070892
1788983114113094100,4.90809423828125,-1.9022127389907837,-0.0605417862534523,0.09821003675460815
1788983114123054000,4.91805419921875,-1.8142188787460327,0.03398161008954048,0.08116758614778519
1788983114133013000,4.928012939453125,-1.721091389656067,0.0702514722943306,0.11351726949214935
1788983114142973000,4.937972900390625,-1.6237813234329224,0.08420686423778534,0.17638738453388214
1788983114152931800,4.947931884765625,-1.531609058380127,0.07652576267719269,0.23912346363067627
1788983114162892000,4.95789208984375,-1.4491220712661743,0.043238960206508636,0.2889651954174042
1788983114172852000,4.96785205078125,-1.369046926498413,-0.00614217109978199,0.3157355487346649
1788983114182811100,4.97781103515625,-1.2942413091659546,-0.061302464455366135,0.3136480450630188
1788983114192771000,4.98777099609375,-1.2422159910202026,-0.10663238912820816,0.2759174406528473
1788983114202731000,4.99773095703125,-1.204176664352417,-0.13482551276683807,0.20979072153568268
1788983114212690200,5.007690185546875,-1.1769427061080933,-0.16537462174892426,0.10715889930725098
1788983114222650000,5.017650146484375,-1.1517647504806519,-0.18370115756988525,-0.023099316284060478
1788983114232609000,5.027609130859375,-1.1502017974853516,-0.19065813720226288,-0.148041769862175
1788983114242569000,5.03756884765625,-1.168878436088562,-0.19983893632888794,-0.2208693027496338
1788983114252529000,5.04752880859375,-1.1880910396575928,-0.2200920134782791,-0.21845434606075287
1788983114262488000,5.057488037109375,-1.1879256963729858,-0.2418133169412613,-0.16602925956249237
1788983114272448000,5.067447998046875,-1.1755685806274414,-0.2480107545852661,-0.1000925824046135
1788983114282408000,5.077407958984375,-1.1533777713775635,-0.2398294061422348,-0.05889558419585228
1788983114292367000,5.0873671875,-1.1250734329223633,-0.24131198227405548,-0.061998967081308365
1788983114302327000,5.0973271484375,-1.0887575149536133,-0.2486840784549713,-0.09778726100921631
1788983114312286000,5.107285888671875,-1.0425301790237427,-0.2488316297531128,-0.13678419589996338
1788983114322246100,5.11724609375,-0.988101601600647,-0.249067023396492,-0.1624177098274231
1788983114332206000,5.1272060546875,-0.9322407245635986,-0.23793765902519226,-0.17046311497688293
1788983114342165000,5.1371650390625,-0.8746381402015686,-0.22371548414230347,-0.16667839884757996
1788983114352125000,5.147125,-0.8159830570220947,-0.20476417243480682,-0.15120729804039001
1788983114362085000,5.157085205078125,-0.7598084211349487,-0.17230898141860962,-0.12546753883361816
1788983114372044000,5.1670439453125,-0.7134765982627869,-0.12092702090740204,-0.09880264103412628
1788983114382004000,5.17700390625,-0.6713860630989075,-0.07102558016777039,-0.07373809814453125
1788983114391964000,5.1869638671875,-0.6342453360557556,-0.04046979546546936,-0.05090814828872681
1788983114401922800,5.1969228515625,-0.6043170094490051,-0.02489146590232849,-0.03046395629644394
1788983114411883000,5.206883056640625,-0.5745521783828735,-0.019988054409623146,-0.008248133584856987
1788983114421842200,5.21684228515625,-0.5481183528900146,-0.020296528935432434,0.013026803731918335
1788983114431802000,5.226802001953125,-0.5211107134819031,-0.02857336774468422,0.02959352917969227
1788983114441762000,5.236761962890625,-0.4912775158882141,-0.04404385760426521,0.047065187245607376
1788983114451721000,5.246720947265625,-0.46636977791786194,-0.05267729237675667,0.06579972803592682
1788983114461681200,5.25668115234375,-0.44384485483169556,-0.057370513677597046,0.07716136425733566
1788983114471641000,5.26664111328125,-0.42504292726516724,-0.05488019436597824,0.07596134394407272
1788983114481600000,5.27660009765625,-0.41110867261886597,-0.0497719943523407,0.05484895408153534
1788983114491560000,5.286559814453125,-0.4059794247150421,-0.043312761932611465,0.025812240317463875
1788983114501518800,5.296518798828125,-0.3998520076274872,-0.04354734346270561,0.0023156581446528435
1788983114511478800,5.306478759765625,-0.39498215913772583,-0.04544804245233536,-0.02041735127568245
1788983114521439000,5.31643896484375,-0.3887558877468109,-0.0499127022922039,-0.03499695658683777
1788983114531398100,5.326398193359375,-0.38526448607444763,-0.04803597182035446,-0.04752420261502266
1788983114541358000,5.336358154296875,-0.3828407824039459,-0.04339953884482384,-0.0541289746761322
1788983114551318000,5.346318115234375,-0.37801462411880493,-0.02350226417183876,-0.05738043040037155
1788983114561277000,5.35627685546875,-0.370809406042099,0.005438253283500671,-0.04921398684382439
1788983114571237000,5.366237060546875,-0.3561795949935913,0.03633518144488335,-0.033260323107242584
1788983114581197000,5.376197021484375,-0.33786940574645996,0.06612251698970795,-0.010945635847747326
1788983114591156000,5.386156005859375,-0.31229960918426514,0.0859265848994255,0.011777253821492195
1788983114601116000,5.396115966796875,-0.28627917170524597,0.09795041382312775,0.032662831246852875
1788983114611074800,5.40607470703125,-0.26093146204948425,0.10011369735002518,0.05086047947406769
1788983114621035000,5.416034912109375,-0.23555536568164825,0.100978784263134,0.06632297486066818
1788983114630995000,5.425994873046875,-0.20987635850906372,0.09200552850961685,0.07897911220788956
1788983114640954000,5.4359541015625,-0.19542033970355988,0.07346121221780777,0.07514814287424088
1788983114650914000,5.4459140625,-0.1777516007423401,0.05740208551287651,0.07514282315969467
1788983114660874200,5.455874267578125,-0.16865426301956177,0.04254494234919548,0.09005795419216156
1788983114670833200,5.465833251953125,-0.15342551469802856,0.041187264025211334,0.11630553752183914
1788983114680793000,5.47579296875,-0.13479672372341156,0.04341175779700279,0.13731206953525543
1788983114690752000,5.485751953125,-0.12195070087909698,0.056005313992500305,0.15676219761371613
1788983114700712000,5.4957119140625,-0.11012330651283264,0.06018107011914253,0.17231746017932892
1788983114710672000,5.505671875,-0.10008052736520767,0.05685318261384964,0.18495576083660126
1788983114720631000,5.515631103515625,-0.09530530124902725,0.03861541301012039,0.19261996448040009
1788983114730591000,5.525591064453125,-0.0958579033613205,0.02397654950618744,0.2013905644416809
1788983114740551000,5.535551025390625,-0.1049904003739357,0.006432879250496626,0.22018547356128693
1788983114750510000,5.545510009765625,-0.12163462489843369,-0.003986205905675888,0.24607698619365692
1788983114760470000,5.555469970703125,-0.1386483758687973,-0.006264029070734978,0.2553292512893677
1788983114770429200,5.56542919921875,-0.14151686429977417,-0.004964405670762062,0.20722560584545135
1788983114780389000,5.57538916015625,-0.12442556023597717,0.01674036681652069,0.07548827677965164
1788983114790349000,5.58534912109375,-0.09799714386463165,0.07654218375682831,-0.12077683955430984
1788983114800308000,5.595307861328125,-0.06581459939479828,0.1451607346534729,-0.35314643383026123
1788983114810268000,5.605267822265625,-0.07273136079311371,0.12675775587558746,-0.6126390099525452
1788983114820228000,5.61522802734375,-0.12442042678594589,0.00881732627749443,-0.8163898587226868
1788983114830187000,5.62518701171875,-0.2105015218257904,-0.156028613448143,-0.8981843590736389
1788983114840147000,5.63514697265625,-0.3045476973056793,-0.25537872314453125,-0.7783897519111633
1788983114850107000,5.64510693359375,-0.3713533580303192,-0.3522762358188629,-0.4219335913658142
1788983114860066000,5.655066162109375,-0.40585169196128845,-0.39427587389945984,0.11592105776071548
1788983114870026000,5.66502587890625,-0.4197533130645752,-0.37745746970176697,0.6544820070266724
1788983114879985200,5.674985107421875,-0.4218529462814331,-0.24719692766666412,1.0124894380569458
1788983114889945000,5.684945068359375,-0.41143226623535156,-0.13462750613689423,1.1180843114852905
1788983114899905000,5.694905029296875,-0.40364617109298706,-0.012043802067637444,1.0277036428451538
1788983114909864000,5.704864013671875,-0.3859878182411194,0.13669587671756744,0.8076311945915222
1788983114919824100,5.71482421875,-0.37439748644828796,0.2528047263622284,0.4943002462387085
1788983114929784000,5.7247841796875,-0.3988508880138397,0.31635868549346924,0.13094495236873627
1788983114939743000,5.734742919921875,-0.4482623338699341,0.30671945214271545,-0.20867511630058289
1788983114949703000,5.744702880859375,-0.5111603736877441,0.1761619597673416,-0.4477982223033905
1788983114959662000,5.754662109375,-0.5675908923149109,-0.015187227167189121,-0.5527200698852539
1788983114969621800,5.764621826171875,-0.6226354837417603,-0.15003451704978943,-0.5352169871330261
1788983114979582000,5.77458203125,-0.6923022270202637,-0.24582895636558533,-0.4552827775478363
1788983114989540900,5.784540771484375,-0.756536066532135,-0.3254651725292206,-0.34516051411628723
1788983114999500800,5.794500732421875,-0.8213688731193542,-0.39406201243400574,-0.21944618225097656
1788983115009460700,5.804460693359375,-0.881310760974884,-0.4332141876220703,-0.07837320864200592
1788983115019419600,5.814419677734375,-0.9537126421928406,-0.4381067752838135,0.061179909855127335
1788983115029379800,5.8243798828125,-1.035074234008789,-0.41698604822158813,0.18070311844348907
1788983115039338800,5.8343388671875,-1.1178302764892578,-0.36992499232292175,0.26792091131210327
1788983115049298700,5.844298583984375,-1.1850379705429077,-0.29636290669441223,0.3203473389148712
1788983115059258600,5.854258544921875,-1.240488886833191,-0.22554461658000946,0.3425564467906952
1788983115069217800,5.8642177734375,-1.285825490951538,-0.15925002098083496,0.32620278000831604
1788983115079178000,5.874177978515625,-1.3243467807769775,-0.09515421092510223,0.28574323654174805
1788983115089138000,5.884137939453125,-1.3598432540893555,-0.047615986317396164,0.23149412870407104
1788983115099096800,5.894096923828125,-1.3942939043045044,-0.015585049986839294,0.17680640518665314
1788983115109056800,5.904056884765625,-1.4273581504821777,-0.002232226775959134,0.12796589732170105
1788983115119017000,5.914016845703125,-1.4628608226776123,-0.014399422332644463,0.07553872466087341
1788983115128976000,5.923975830078125,-1.4965282678604126,-0.04077616706490517,0.00922707375138998
1788983115138935800,5.933935791015625,-1.5196934938430786,-0.07150539755821228,-0.05957728251814842
1788983115148894700,5.943894775390625,-1.547136902809143,-0.10189525783061981,-0.12061560153961182
1788983115158854700,5.953854736328125,-1.5721290111541748,-0.12748926877975464,-0.1596466600894928
1788983115168814600,5.963814697265625,-1.5873441696166992,-0.152044415473938,-0.17414650321006775
1788983115178773800,5.973773681640625,-1.6037406921386719,-0.16596488654613495,-0.17687924206256866
1788983115188733700,5.983733642578125,-1.6229714155197144,-0.16676196455955505,-0.1692942976951599
1788983115198693600,5.993693603515625,-1.6528806686401367,-0.1839907169342041,-0.1646609604358673
1788983115208652800,6.00365283203125,-1.682321310043335,-0.19672754406929016,-0.15453855693340302
1788983115218612700,6.01361279296875,-1.7122645378112793,-0.2145867645740509,-0.1423741728067398
1788983115228571600,6.023571533203125,-1.7379547357559204,-0.2362971156835556,-0.1222904846072197
1788983115238531800,6.03353173828125,-1.7616275548934937,-0.25798293948173523,-0.0940026193857193
1788983115248491800,6.04349169921875,-1.7837657928466797,-0.28273993730545044,-0.06520906090736389
1788983115258450700,6.05345068359375,-1.8087687492370605,-0.3037659525871277,-0.03868670016527176
1788983115268410600,6.06341064453125,-1.8297147750854492,-0.31308701634407043,-0.022011052817106247
1788983115278370800,6.073370849609375,-1.8551092147827148,-0.31063055992126465,-0.01885390654206276
1788983115288329700,6.083329833984375,-1.87615966796875,-0.3075202405452728,-0.01848905347287655
1788983115298289700,6.09328955078125,-1.895358681678772,-0.31154921650886536,-0.0238586887717247
1788983115308248800,6.103248779296875,-1.9096063375473022,-0.3097635805606842,-0.03444155678153038
1788983115318208800,6.113208740234375,-1.9239587783813477,-0.3050214946269989,-0.03411756455898285
1788983115328169000,6.1231689453125,-1.9455910921096802,-0.2862597703933716,-0.014483675360679626
1788983115338128000,6.1331279296875,-1.9724559783935547,-0.26470351219177246,0.02888861484825611
1788983115348087800,6.143087890625,-1.991879940032959,-0.2514159381389618,0.08736816793680191
1788983115358047700,6.1530478515625,-2.014267921447754,-0.23689422011375427,0.1599102020263672
1788983115368006700,6.163006591796875,-2.0431926250457764,-0.22508949041366577,0.23333542048931122
1788983115377966800,6.172966796875,-2.0714521408081055,-0.22380243241786957,0.2961498498916626
1788983115387926800,6.1829267578125,-2.10078763961792,-0.2369653731584549,0.35654768347740173
1788983115397885700,6.1928857421875,-2.1338164806365967,-0.273491233587265,0.4232670068740845
1788983115407845600,6.202845703125,-2.164133071899414,-0.30660951137542725,0.48739004135131836
1788983115417804800,6.2128046875,-2.1826131343841553,-0.3243967890739441,0.5381962060928345
1788983115427764700,6.2227646484375,-2.1788573265075684,-0.32085132598876953,0.532555103302002
1788983115437725000,6.232724853515625,-2.118448257446289,-0.3673303425312042,0.4121309518814087
1788983115447683800,6.242683837890625,-1.994844675064087,-0.47010040283203125,0.15338964760303497
1788983115457643800,6.252643798828125,-1.9084140062332153,-0.539057195186615,-0.2502439022064209
1788983115467603700,6.262603759765625,-1.939805507659912,-0.5520774126052856,-0.6938197612762451
1788983115477562600,6.272562744140625,-2.0402956008911133,-0.5563184022903442,-0.9773783087730408
1788983115487522800,6.282522705078125,-2.134401559829712,-0.5935710072517395,-0.9707955121994019
1788983115497481700,6.292481689453125,-2.1824259757995605,-0.5799601078033447,-0.684904932975769
1788983115507441700,6.302441650390625,-2.155451536178589,-0.5554360747337341,-0.24485966563224792
1788983115517401600,6.312401611328125,-2.0846362113952637,-0.4701690971851349,0.1562574952840805
1788983115527360800,6.32236083984375,-2.023550033569336,-0.2806108891963959,0.3708941638469696
1788983115537321000,6.332321044921875,-1.9742450714111328,-0.08442045748233795,0.3958859443664551
1788983115547281000,6.342281005859375,-1.901165246963501,0.07186368852853775,0.3592299520969391
1788983115557239800,6.35223974609375,-1.8103314638137817,0.1589733362197876,0.356220006942749
1788983115567199700,6.36219970703125,-1.7202833890914917,0.15897653996944427,0.3979930281639099
1788983115577158700,6.37215869140625,-1.63120698928833,0.12038830667734146,0.4341934621334076
1788983115587118800,6.382118896484375,-1.5489789247512817,0.032853931188583374,0.43728750944137573
1788983115597078800,6.392078857421875,-1.4886696338653564,-0.09278304874897003,0.41479334235191345
1788983115607037700,6.40203759765625,-1.4305768013000488,-0.24045239388942719,0.36366385221481323
1788983115616997600,6.41199755859375,-1.3891315460205078,-0.36668431758880615,0.2894589900970459
1788983115626957600,6.42195751953125,-1.377756118774414,-0.44919678568840027,0.19372503459453583
1788983115636917000,6.4319169921875,-1.3835241794586182,-0.4938778877258301,0.08351245522499084
1788983115646877000,6.441876953125,-1.4020240306854248,-0.4662199020385742,-0.024070993065834045
1788983115656835800,6.4518359375,-1.4439609050750732,-0.4046911597251892,-0.11731851100921631
1788983115666795800,6.461795654296875,-1.4905571937561035,-0.3251310884952545,-0.16442103683948517
1788983115676755700,6.471755615234375,-1.5370386838912964,-0.2465491145849228,-0.16191722452640533
1788983115686714600,6.481714599609375,-1.5677151679992676,-0.1830740123987198,-0.10979544371366501
1788983115696674800,6.4916748046875,-1.5858676433563232,-0.14058788120746613,-0.019477255642414093
1788983115706634800,6.501634765625,-1.576535701751709,-0.11248566955327988,0.06379153579473495
1788983115716593700,6.51159375,-1.551200032234192,-0.09783519059419632,0.11410155892372131
1788983115726553600,6.5215537109375,-1.508590579032898,-0.1079900935292244,0.13484731316566467
1788983115736513800,6.531513671875,-1.4573414325714111,-0.13547192513942719,0.14754840731620789
1788983115746473000,6.541472900390625,-1.3905216455459595,-0.1714102178812027,0.15604735910892487
1788983115756433000,6.551432861328125,-1.309239149093628,-0.21834057569503784,0.14230690896511078
1788983115766391800,6.561391845703125,-1.2342777252197266,-0.26782023906707764,0.09989606589078903
1788983115776351700,6.571351806640625,-1.1721901893615723,-0.31671467423439026,0.032054487615823746
1788983115786312000,6.58131201171875,-1.118322730064392,-0.37008631229400635,-0.03819863498210907
1788983115796270800,6.591270751953125,-1.0756361484527588,-0.4220748841762543,-0.09103401005268097
1788983115806230800,6.601230712890625,-1.0507146120071411,-0.44835546612739563,-0.10936987400054932
1788983115816190700,6.611190673828125,-1.0335280895233154,-0.4527389109134674,-0.09977295994758606
1788983115826149600,6.621149658203125,-1.021894097328186,-0.44266363978385925,-0.07870256155729294
1788983115836109800,6.63110986328125,-1.0106819868087769,-0.41653087735176086,-0.055888015776872635
1788983115846068700,6.64106884765625,-0.9979065656661987,-0.3893762230873108,-0.03176882863044739
1788983115856028700,6.651028564453125,-0.978480339050293,-0.35498178005218506,-0.003391437465324998
1788983115865988600,6.660988525390625,-0.9533374309539795,-0.3163430392742157,0.02100711315870285
1788983115875947800,6.67094775390625,-0.9157257676124573,-0.2658829391002655,0.030031975358724594
1788983115885907700,6.68090771484375,-0.8679688572883606,-0.20394155383110046,0.013851139694452286
1788983115895868000,6.690867919921875,-0.8216878771781921,-0.142217218875885,-0.02605651691555977
1788983115905826800,6.700826904296875,-0.7754389047622681,-0.08894040435552597,-0.06457221508026123
1788983115915786800,6.710786865234375,-0.7264193892478943,-0.04505167901515961,-0.08641136437654495
1788983115925746700,6.72074658203125,-0.6785171031951904,-0.01936575397849083,-0.09151478111743927
1788983115935705600,6.73070556640625,-0.6330714821815491,-0.006711598951369524,-0.0938873440027237
1788983115945665800,6.740665771484375,-0.5918449759483337,0.00527502316981554,-0.10189945995807648
1788983115955624700,6.750624755859375,-0.5511372685432434,0.020521940663456917,-0.11560101807117462
1788983115965585200,6.760585205078125,-0.5177835822105408,0.03769533336162567,-0.13557258248329163
1788983115975545000,6.770545166015625,-0.48721587657928467,0.05778229236602783,-0.1513935774564743
1788983115985504300,6.780504150390625,-0.46026310324668884,0.06647191941738129,-0.15314753353595734
1788983115995464200,6.790464111328125,-0.43345117568969727,0.06901594251394272,-0.14463269710540771
1788983116005424400,6.80042431640625,-0.4048602879047394,0.06856507062911987,-0.13613934814929962
1788983116015383300,6.81038330078125,-0.3765066862106323,0.07166258990764618,-0.1213497519493103
1788983116025343200,6.82034326171875,-0.3431535065174103,0.06400547176599503,-0.10236673057079315
1788983116035302100,6.83030224609375,-0.30603209137916565,0.05198211967945099,-0.08501772582530975
1788983116045262000,6.840261962890625,-0.263830304145813,0.04180325195193291,-0.08240968734025955
1788983116055222000,6.850221923828125,-0.22339998185634613,0.03635138273239136,-0.10334216058254242
1788983116065181200,6.86018115234375,-0.19298376142978668,0.03666004166007042,-0.12784403562545776
1788983116075141000,6.87014111328125,-0.17525620758533478,0.015551884658634663,-0.13733886182308197
1788983116085101000,6.88010107421875,-0.15463535487651825,-0.02360856719315052,-0.12177108973264694
1788983116095060200,6.890060302734375,-0.14115722477436066,-0.061051663011312485,-0.09779699146747589
1788983116105020200,6.900020263671875,-0.13427507877349854,-0.09305033832788467,-0.07509860396385193
1788983116114979000,6.90997900390625,-0.13153141736984253,-0.11748818308115005,-0.07268458604812622
1788983116124939300,6.919939208984375,-0.1325644701719284,-0.12936720252037048,-0.09351183474063873
1788983116134899200,6.929899169921875,-0.138327956199646,-0.12424544245004654,-0.13348066806793213
1788983116144858000,6.939858154296875,-0.142137348651886,-0.09885406494140625,-0.1708248406648636
1788983116154818000,6.949818115234375,-0.14468853175640106,-0.05431564524769783,-0.1956181824207306
1788983116164778200,6.9597783203125,-0.15311317145824432,0.0016256498638540506,-0.20647002756595612
1788983116174737200,6.969737060546875,-0.15707635879516602,0.06917311996221542,-0.20628340542316437
1788983116184697000,6.979697021484375,-0.1630477011203766,0.11218157410621643,-0.19351620972156525
1788983116194656300,6.98965625,-0.16380451619625092,0.13074736297130585,-0.1565297693014145
1788983116204616200,6.9996162109375,-0.16031524538993835,0.1335335522890091,-0.08919761329889297
1788983116214576000,7.009576171875,-0.15709473192691803,0.14159168303012848,-0.009147312492132187
1788983116224535300,7.019535400390625,-0.15362782776355743,0.14697100222110748,0.07540219277143478
1788983116234495200,7.0294951171875,-0.13531872630119324,0.15044936537742615,0.1479506939649582
1788983116244455200,7.039455078125,-0.11749737709760666,0.1545141488313675,0.16170485317707062
1788983116254414000,7.0494140625,-0.101203553378582,0.17847022414207458,0.08508408814668655
1788983116264374300,7.059374267578125,-0.07402972131967545,0.21901951730251312,-0.08000180870294571
1788983116274334200,7.069334228515625,-0.04082771763205528,0.252795934677124,-0.28310805559158325
1788983116284293000,7.079293212890625,-0.0459231436252594,0.23762044310569763,-0.4760247766971588
1788983116294253000,7.089253173828125,-0.10098832845687866,0.14059843122959137,-0.6127276420593262
1788983116304212000,7.0992119140625,-0.15290984511375427,0.0046326033771038055,-0.6421763300895691
1788983116314172000,7.109171875,-0.19494853913784027,-0.06865858286619186,-0.5418114066123962
1788983116324132000,7.119132080078125,-0.21956732869148254,-0.11193468421697617,-0.3300629258155823
1788983116334091300,7.12909130859375,-0.21819163858890533,-0.14250783622264862,-0.061502035707235336
1788983116344051200,7.13905126953125,-0.19262662529945374,-0.11503440886735916,0.14331981539726257
1788983116354011100,7.14901123046875,-0.15419188141822815,-0.04596022143959999,0.23662681877613068
1788983116363970000,7.158969970703125,-0.10605736076831818,0.027555007487535477,0.2553509771823883
1788983116373930200,7.16893017578125,-0.04864165559411049,0.09090965986251831,0.23741866648197174
1788983116383889200,7.17888916015625,0.004064435604959726,0.15445853769779205,0.21397912502288818
1788983116393849000,7.18884912109375,0.05134691298007965,0.18909983336925507,0.19153715670108795
1788983116403809000,7.19880908203125,0.08525481075048447,0.2167823314666748,0.1649356335401535
1788983116413768000,7.208767822265625,0.10087420791387558,0.21473373472690582,0.11703398078680038
1788983116423728000,7.21872802734375,0.09521046280860901,0.18546533584594727,0.031062349677085876
1788983116433688000,7.22868798828125,0.0769873782992363,0.14902807772159576,-0.10404039174318314
1788983116443647200,7.238647216796875,0.0643504187464714,0.11776071041822433,-0.28117334842681885
1788983116453607200,7.248607177734375,0.05715729668736458,0.06848720461130142,-0.4659107029438019
1788983116463566000,7.258566162109375,0.08225013315677643,0.0060712299309670925,-0.6108316779136658
1788983116473526300,7.2685263671875,0.1380855292081833,-0.057487182319164276,-0.7189334630966187
1788983116483486200,7.278486328125,0.1889130175113678,-0.08897719532251358,-0.80012446641922
1788983116493445000,7.288445068359375,0.2163102775812149,-0.09033691138029099,-0.8213452696800232
1788983116503405000,7.298405029296875,0.20819668471813202,-0.07844936102628708,-0.7380748391151428
1788983116513365000,7.308364990234375,0.18350766599178314,-0.10735967755317688,-0.5271852612495422
1788983116523324200,7.31832421875,0.1588105708360672,-0.1882217675447464,-0.22272364795207977
1788983116533284000,7.3282841796875,0.1362297236919403,-0.2807457745075226,0.0954560786485672
1788983116543243300,7.3382431640625,0.10593200474977493,-0.3220122456550598,0.34108662605285645
1788983116553203200,7.348203125,0.05866825953125954,-0.2698913514614105,0.4977482557296753
1788983116563163100,7.3581630859375,-0.008532078936696053,-0.2154347449541092,0.5597072243690491
1788983116573122000,7.3681220703125,-0.05733685567975044,-0.13373073935508728,0.5342286825180054
1788983116583082200,7.378082275390625,-0.09237953275442123,-0.05003638193011284,0.4364006221294403
1788983116593042200,7.388042236328125,-0.1205863356590271,0.03279963508248329,0.29841941595077515
1788983116603001000,7.3980009765625,-0.14644642174243927,0.12737727165222168,0.15339085459709167
1788983116612961000,7.4079609375,-0.1554892361164093,0.1719868779182434,0.032725561410188675
1788983116622921200,7.417921142578125,-0.14358890056610107,0.17617842555046082,-0.03271576017141342
1788983116632880000,7.427880126953125,-0.1145293116569519,0.14630022644996643,-0.06006164103746414
1788983116642840000,7.437840087890625,-0.08199559897184372,0.0952405110001564,-0.08365777879953384
1788983116652799200,7.44779931640625,-0.050416916608810425,0.0358184389770031,-0.11727630347013474
1788983116662759200,7.45775927734375,-0.020434781908988953,-0.01760483719408512,-0.14634470641613007
1788983116672719400,7.46771923828125,0.0025213935878127813,-0.06384118646383286,-0.1544748693704605
1788983116682678300,7.47767822265625,0.014526124112308025,-0.09868119657039642,-0.12748000025749207
1788983116692638200,7.48763818359375,0.01790686883032322,-0.11484858393669128,-0.08358157426118851
1788983116702598100,7.49759814453125,0.02062196284532547,-0.10814540833234787,-0.04031132906675339
1788983116712557000,7.50755712890625,0.012371445074677467,-0.0892849937081337,-0.008357036858797073
1788983116722517200,7.517517333984375,0.009485643357038498,-0.06494875997304916,0.024928748607635498
1788983116732476200,7.52747607421875,0.012430588714778423,-0.04526076838374138,0.07043014466762543
1788983116742436000,7.53743603515625,0.014742213301360607,-0.05092025175690651,0.12095457315444946
1788983116752396000,7.54739599609375,0.014633351005613804,-0.060981154441833496,0.16609814763069153
1788983116762355200,7.557355224609375,0.016709018498659134,-0.07211955636739731,0.18367794156074524
1788983116772315100,7.567315185546875,0.01662207767367363,-0.08809184283018112,0.17098890244960785
1788983116782275000,7.577275146484375,0.015127778984606266,-0.10121403634548187,0.1397111415863037
1788983116792234200,7.587234130859375,0.006735708098858595,-0.10826871544122696,0.1003270074725151
1788983116802194200,7.597194091796875,-0.000023927248548716307,-0.11294282972812653,0.07155501842498779
1788983116812153000,7.607153076171875,-0.004310025367885828,-0.1226256936788559,0.07220344245433807
1788983116822113000,7.617113037109375,-0.010332497768104076,-0.12699487805366516,0.10445192456245422
1788983116832073200,7.6270732421875,-0.0193464532494545,-0.11012180149555206,0.1621129959821701
1788983116842032000,7.6370322265625,-0.04047943651676178,-0.10427083820104599,0.22815726697444916
1788983116851992000,7.646991943359375,-0.052096888422966,-0.08949843049049377,0.29960671067237854
1788983116861952000,7.656951904296875,-0.0639551505446434,-0.08810026943683624,0.35244330763816833
1788983116871911200,7.6669111328125,-0.07625485211610794,-0.10715831071138382,0.35543933510780334
1788983116881871000,7.67687109375,-0.08046583831310272,-0.1565876454114914,0.26792144775390625
1788983116891831000,7.6868310546875,-0.09881585836410522,-0.21302077174186707,0.0905364379286766
1788983116901790200,7.696790283203125,-0.12489326298236847,-0.2580487132072449,-0.13697047531604767
1788983116911750100,7.706750244140625,-0.15213708579540253,-0.2532051205635071,-0.3494468927383423
1788983116921709000,7.716708984375,-0.1709054559469223,-0.1884857714176178,-0.4946347177028656
1788983116931669200,7.726669189453125,-0.17766015231609344,-0.09433569759130478,-0.5420849323272705
1788983116941629200,7.736629150390625,-0.18103037774562836,0.04622966796159744,-0.49945950508117676
1788983116951588000,7.746588134765625,-0.19081856310367584,0.18833474814891815,-0.38226357102394104
1788983116961548000,7.756548095703125,-0.20682361721992493,0.27076199650764465,-0.19953370094299316
1788983116971507700,7.7665078125,-0.19305993616580963,0.3146750032901764,0.028100118041038513
1788983116981467000,7.776466796875,-0.14933323860168457,0.2598314583301544,0.246276393532753
1788983116991426800,7.7864267578125,-0.12779495120048523,0.1367880254983902,0.3912370800971985
1788983117001385700,7.7963857421875,-0.1346275508403778,0.030924182385206223,0.43218478560447693
1788983117011346000,7.806345947265625,-0.14647439122200012,-0.012745212763547897,0.4125076234340668
1788983117021305900,7.816305908203125,-0.15770255029201508,-0.03218921646475792,0.36429324746131897
1788983117031264800,7.8262646484375,-0.1728569120168686,-0.017053473740816116,0.3208290636539459
1788983117041224700,7.836224609375,-0.1847742795944214,-0.01461055688560009,0.2853906452655792
1788983117051184600,7.8461845703125,-0.17942726612091064,-0.0019865306094288826,0.26249438524246216
1788983117061143800,7.856143798828125,-0.16333991289138794,-0.0059724836610257626,0.23432746529579163
1788983117071103700,7.866103759765625,-0.14116297662258148,-0.0020645614713430405,0.17614991962909698
1788983117081063000,7.87606298828125,-0.11708132922649384,0.03449664264917374,0.07667206227779388
1788983117091022800,7.88602294921875,-0.10371416062116623,0.05739935114979744,-0.05484108254313469
1788983117100982800,7.895982666015625,-0.09932607412338257,0.03946269676089287,-0.186977818608284
1788983117110942000,7.90594189453125,-0.10251589119434357,-0.007431063801050186,-0.29898035526275635
1788983117120902000,7.91590185546875,-0.11598802357912064,-0.0810733288526535,-0.3802001178264618
1788983117130861800,7.92586181640625,-0.13857027888298035,-0.16429348289966583,-0.44147902727127075
1788983117140820700,7.93582080078125,-0.1565822958946228,-0.2286117523908615,-0.5090087652206421
1788983117150780700,7.94578076171875,-0.16676928102970123,-0.21715454757213593,-0.5901045799255371
1788983117160739600,7.955739501953125,-0.17811541259288788,-0.12944120168685913,-0.6519533395767212
1788983117170699800,7.96569970703125,-0.17481204867362976,0.0048718200996518135,-0.6354201436042786
1788983117180659700,7.97565966796875,-0.15059752762317657,0.15663312375545502,-0.4990774393081665
1788983117190619000,7.985618896484375,-0.1155039593577385,0.27535757422447205,-0.24107198417186737
1788983117200578800,7.995578857421875,-0.0681321769952774,0.3295547664165497,0.074506476521492
1788983117210538800,8.005538818359375,-0.03084440715610981,0.275886595249176,0.32545214891433716
1788983117220498000,8.015497802734375,-0.0008012879989109933,0.15846753120422363,0.43317198753356934
1788983117230457900,8.025457763671875,0.017106782644987106,0.03283514082431793,0.40837544202804565
1788983117240417800,8.035417724609376,0.02363605424761772,-0.041518986225128174,0.31456801295280457
1788983117250376700,8.045376708984374,0.03420010581612587,-0.11190536618232727,0.21608014404773712
1788983117260337000,8.0553369140625,0.04429375007748604,-0.1611863672733307,0.13517676293849945
1788983117270295800,8.0652958984375,0.04638592526316643,-0.1867017149925232,0.0737684816122055
1788983117280255700,8.075255859375,0.03428345546126366,-0.1828867346048355,0.017874058336019516
1788983117290215700,8.085215576171874,0.013899550773203373,-0.1430264115333557,-0.029726406559348106
1788983117300174600,8.095174560546875,-0.009989537298679352,-0.09429589658975601,-0.06003317981958389
1788983117310134500,8.105134521484375,-0.02836841717362404,-0.027816617861390114,-0.07032687962055206
1788983117320094700,8.1150947265625,-0.037488676607608795,0.055280666798353195,-0.06895987689495087
1788983117330054000,8.125053955078124,-0.043429937213659286,0.12413907051086426,-0.06506672501564026
1788983117340013800,8.135013916015625,-0.04186506196856499,0.15368817746639252,-0.0575462207198143
1788983117349972700,8.14497265625,-0.0303048063069582,0.1414705365896225,-0.05616132169961929
1788983117359932700,8.1549326171875,-0.014804942533373833,0.11501442641019821,-0.04916200414299965
1788983117369892900,8.164892822265625,0.005819298326969147,0.09242107719182968,-0.03479954972863197
1788983117379851800,8.174851806640625,0.028322741389274597,0.07204363495111465,-0.008855300024151802
1788983117389811700,8.184811767578125,0.05314035341143608,0.07157189399003983,0.027357999235391617
1788983117399771600,8.194771728515626,0.07616231590509415,0.08510182052850723,0.06819437444210052
1788983117409730600,8.20473046875,0.09990812093019485,0.10494370013475418,0.10758146643638611
1788983117419690800,8.214690673828125,0.12507688999176025,0.12498964369297028,0.1417807787656784
1788983117429650000,8.22464990234375,0.15270507335662842,0.14425139129161835,0.15298406779766083
1788983117439609900,8.23460986328125,0.1755286306142807,0.1645904779434204,0.13706955313682556
1788983117449569800,8.24456982421875,0.18912944197654724,0.1799459457397461,0.10936853289604187
1788983117459528700,8.25452880859375,0.19206291437149048,0.1752883344888687,0.08437316864728928
1788983117469489000,8.264489013671875,0.19216546416282654,0.15126945078372955,0.08081215620040894
1788983117479448800,8.27444873046875,0.1855027675628662,0.1156049370765686,0.09811418503522873
1788983117489407700,8.28440771484375,0.16974081099033356,0.07052592933177948,0.12842455506324768
1788983117499367700,8.29436767578125,0.14952155947685242,0.013507919386029243,0.1535046100616455
1788983117509326600,8.30432666015625,0.1308610886335373,-0.029698194935917854,0.18400618433952332
1788983117519286800,8.314286865234376,0.10351228713989258,-0.057620108127593994,0.21536996960639954
1788983117529246700,8.324246826171875,0.07292943447828293,-0.06773769110441208,0.25104784965515137
1788983117539206000,8.334205810546875,0.057788025587797165,-0.03284841775894165,0.27819132804870605
1788983117549165800,8.344165771484375,0.052833590656518936,0.037838343530893326,0.301069438457489
1788983117559125800,8.354125732421876,0.040255215018987656,0.1301001012325287,0.32147857546806335
1788983117569085000,8.3640849609375,0.031303197145462036,0.2190527468919754,0.32409581542015076
1788983117579044900,8.374044921875,0.04377291351556778,0.27094364166259766,0.2608225643634796
1788983117589004800,8.3840048828125,0.06641073524951935,0.30601629614830017,0.11585834622383118
1788983117598963700,8.393963623046876,0.08618204295635223,0.38392919301986694,-0.09921667724847794
1788983117608923600,8.403923583984374,0.09996321052312851,0.49594080448150635,-0.33336329460144043
1788983117618882600,8.413882568359375,0.09661614894866943,0.5664471983909607,-0.513614296913147
1788983117628842800,8.4238427734375,0.07508763670921326,0.5416581630706787,-0.5961621999740601
1788983117638802700,8.433802734375,0.044275131076574326,0.43898606300354004,-0.5747421383857727
1788983117648761900,8.443761962890624,0.0242445170879364,0.2798941731452942,-0.44553378224372864
1788983117658721800,8.4537216796875,0.0046628257259726524,0.12365956604480743,-0.21192286908626556
1788983117668682000,8.463681884765625,-0.006094648037105799,0.023843690752983093,0.06397388875484467
1788983117678641000,8.473640869140626,-0.003474097466096282,0.007084418088197708,0.29699888825416565
1788983117688600800,8.483600830078124,0.012570222839713097,0.051602695137262344,0.4539589285850525
1788983117698559700,8.493559814453125,0.02834758721292019,0.11958520859479904,0.5519299507141113
1788983117708519700,8.503519775390625,0.045250773429870605,0.1651502400636673,0.6238813400268555
1788983117718480000,8.51347998046875,0.07239210605621338,0.19558404386043549,0.6802428960800171
1788983117728438800,8.523438720703124,0.0972781851887703,0.21060845255851746,0.7184499502182007
1788983117738398700,8.533398681640625,0.11927136778831482,0.21639177203178406,0.7100324630737305
1788983117748358700,8.543358642578125,0.13268081843852997,0.2090068906545639,0.6248329281806946
1788983117758317800,8.55331787109375,0.13401612639427185,0.1729263812303543,0.4638238251209259
1788983117768277800,8.56327783203125,0.13328717648983002,0.10909978300333023,0.24510601162910461
1788983117778237000,8.57323681640625,0.13336201012134552,0.03472622111439705,-0.011179843917489052
1788983117788196900,8.58319677734375,0.15012070536613464,-0.06080305203795433,-0.2597128748893738
1788983117798156800,8.59315673828125,0.1749240607023239,-0.14882318675518036,-0.43439945578575134
1788983117808115700,8.60311572265625,0.1808345913887024,-0.24340485036373138,-0.5154847502708435
1788983117818075600,8.61307568359375,0.17492130398750305,-0.32639268040657043,-0.5388747453689575
1788983117828035800,8.623035888671875,0.1718558967113495,-0.402340829372406,-0.5324686765670776
1788983117837994800,8.632994873046876,0.1679740697145462,-0.4788009822368622,-0.5065704584121704
1788983117847954700,8.64295458984375,0.1475507915019989,-0.5207082629203796,-0.46451857686042786
1788983117857913900,8.652913818359375,0.11811408400535583,-0.4984804391860962,-0.3941304087638855
1788983117867873800,8.662873779296875,0.09154399484395981,-0.4167369604110718,-0.27330195903778076
1788983117877833700,8.672833740234376,0.07647449523210526,-0.27386340498924255,-0.09799323976039886
1788983117887793000,8.68279296875,0.0701768696308136,-0.13739502429962158,0.10180725157260895
1788983117897752800,8.6927529296875,0.07313670963048935,-0.018360521644353867,0.26895391941070557
1788983117907712800,8.702712646484375,0.06619011610746384,0.05212775990366936,0.3561186194419861
1788983117917671700,8.712671630859376,0.057753488421440125,0.0944477841258049,0.3532256484031677
1788983117927632000,8.7226318359375,0.05967378616333008,0.09456381946802139,0.2980191111564636
1788983117937591800,8.732591796875,0.0624043270945549,0.07010934501886368,0.23025524616241455
1788983117947550700,8.74255078125,0.06414192169904709,0.02498823031783104,0.16786469519138336
1788983117957510700,8.7525107421875,0.07114523649215698,-0.033403705805540085,0.09673431515693665
1788983117967469800,8.7624697265625,0.07591932266950607,-0.08378344774246216,0.01129317469894886
1788983117977429800,8.7724296875,0.07154135406017303,-0.1276012361049652,-0.07242968678474426
1788983117987389700,8.7823896484375,0.05863344296813011,-0.16264677047729492,-0.13233555853366852
1788983117997348900,8.792348876953126,0.034213319420814514,-0.18493236601352692,-0.15884466469287872
1788983118007309000,8.80230908203125,0.0076865870505571365,-0.19243764877319336,-0.15800918638706207
1788983118017269000,8.81226904296875,-0.012947585433721542,-0.18622316420078278,-0.14221663773059845
1788983118027228000,8.822227783203125,-0.0256955586373806,-0.16302241384983063,-0.12157351523637772
1788983118037187800,8.832187744140626,-0.03405655175447464,-0.1305829882621765,-0.10161525756120682
1788983118047146800,8.842146728515624,-0.036865342408418655,-0.08527000993490219,-0.07686339318752289
1788983118057107000,8.85210693359375,-0.03869174048304558,-0.0477609857916832,-0.03901961073279381
1788983118067067000,8.86206689453125,-0.03660592809319496,-0.029010692611336708,0.004008774179965258
1788983118077025800,8.87202587890625,-0.04251068830490112,-0.02866527810692787,0.04461745172739029
1788983118086985700,8.88198583984375,-0.050946809351444244,-0.04171933978796005,0.07416526973247528
1788983118096946000,8.89194580078125,-0.06059650704264641,-0.052331503480672836,0.09425589442253113
1788983118106905000,8.901905029296875,-0.07150829583406448,-0.05776119977235794,0.11094356328248978
1788983118116865000,8.911864990234376,-0.07681171596050262,-0.0688876211643219,0.12250674515962601
1788983118126824000,8.921823974609374,-0.08135833591222763,-0.0828230008482933,0.1226096823811531
1788983118136784000,8.931783935546875,-0.08627372980117798,-0.10076498985290527,0.11453364789485931
1788983118146743800,8.941743896484375,-0.09039045870304108,-0.11209744215011597,0.10928864777088165
1788983118156703000,8.951702880859376,-0.094784677028656,-0.09987645596265793,0.10999491810798645
1788983118166663000,8.961662841796874,-0.09419862926006317,-0.0641649067401886,0.11833104491233826
1788983118176622800,8.971622802734375,-0.09015648066997528,-0.015129187144339085,0.12603503465652466
1788983118186581800,8.981581787109375,-0.07529027760028839,0.03576311469078064,0.13054421544075012
1788983118196541700,8.991541748046876,-0.057433247566223145,0.08153779059648514,0.12235818058252335
1788983118206502000,9.001501953125,-0.04368878901004791,0.12112504243850708,0.11325007677078247
1788983118216461000,9.0114609375,-0.027892781421542168,0.14700856804847717,0.11194726079702377
1788983118226421000,9.0214208984375,-0.020908458158373833,0.14237384498119354,0.12496235966682434
1788983118236380000,9.0313798828125,-0.02564435824751854,0.12131543457508087,0.1546422243118286
1788983118246339800,9.04133984375,-0.03098907880485058,0.06306619197130203,0.1717464178800583
1788983118256300000,9.051300048828125,-0.012533904984593391,-0.011597123928368092,0.12093864381313324
1788983118266259000,9.061259033203125,-0.0007327228668145835,-0.05009394884109497,-0.02598133683204651
1788983118276219000,9.071218994140626,-0.018254725262522697,-0.06116630509495735,-0.23442402482032776
1788983118286178800,9.0811787109375,-0.05874094367027283,-0.05149964988231659,-0.43456128239631653
1788983118296137700,9.0911376953125,-0.10177070647478104,-0.004916171543300152,-0.5450081825256348
1788983118306098000,9.101097900390625,-0.11072209477424622,0.05214596912264824,-0.5500045418739319
1788983118316057000,9.11105712890625,-0.0959780365228653,0.127688929438591,-0.4808129370212555
1788983118326017000,9.12101708984375,-0.10569926351308823,0.19894908368587494,-0.37082332372665405
1788983118335977000,9.13097705078125,-0.11759240925312042,0.2576552629470825,-0.2260006219148636
1788983118345936000,9.140935791015625,-0.10143003612756729,0.3243526220321655,-0.04144018888473511
1788983118355896000,9.15089599609375,-0.06678710877895355,0.33846524357795715,0.16562776267528534
1788983118365856000,9.16085595703125,-0.033706020563840866,0.3134399950504303,0.3561433255672455
1788983118375815000,9.17081494140625,-0.015892401337623596,0.27461856603622437,0.4876810908317566
1788983118385774800,9.18077490234375,-0.013391914777457714,0.2017577439546585,0.5468018651008606
1788983118395733800,9.190733642578126,-0.0316404290497303,0.1065116599202156,0.557164192199707
1788983118405694000,9.20069384765625,-0.0502927340567112,-0.017050212249159813,0.5274238586425781
1788983118415654000,9.21065380859375,-0.07380125671625137,-0.15524163842201233,0.4478895962238312
1788983118425612800,9.22061279296875,-0.09049872308969498,-0.2759062349796295,0.32745951414108276
1788983118435572700,9.23057275390625,-0.0985230877995491,-0.3460560441017151,0.17753475904464722
1788983118445532700,9.24053271484375,-0.10449797660112381,-0.3488427996635437,0.021418357267975807
1788983118455491800,9.250491943359375,-0.11204111576080322,-0.2918359637260437,-0.11788174510002136
1788983118465452000,9.2604521484375,-0.12307955324649811,-0.22846411168575287,-0.22297072410583496
1788983118475411000,9.270410888671876,-0.13657993078231812,-0.17642301321029663,-0.27624833583831787
1788983118485371000,9.280370849609374,-0.14212198555469513,-0.14622455835342407,-0.26911959052085876
1788983118495330800,9.290330810546875,-0.1420612633228302,-0.11335902661085129,-0.24982446432113647
1788983118505289700,9.300289794921875,-0.14727699756622314,-0.050730545073747635,-0.24136193096637726
1788983118515250000,9.31025,-0.1651923507452011,0.005479730665683746,-0.24776363372802734
1788983118525209900,9.3202099609375,-0.18079085648059845,0.05767710506916046,-0.236001655459404
1788983118535168800,9.330168701171875,-0.1815328150987625,0.10412582755088806,-0.19077850878238678
1788983118545128700,9.340128662109375,-0.17338129878044128,0.1331665813922882,-0.08212912827730179
1788983118555089000,9.3500888671875,-0.15916775166988373,0.14764593541622162,0.07593055069446564
1788983118565048000,9.360048095703124,-0.13115161657333374,0.1493915468454361,0.24303707480430603
1788983118575008000,9.370008056640625,-0.08832184970378876,0.11700084805488586,0.3584184944629669
1788983118584967000,9.379966796875,-0.05159194767475128,0.07799243927001953,0.38710200786590576
1788983118594926800,9.3899267578125,-0.013632314279675484,0.041772644966840744,0.347411572933197
1788983118604887000,9.399886962890625,0.020179854705929756,0.021336369216442108,0.27823606133461
1788983118614846000,9.409845947265625,0.04167928919196129,0.015322685241699219,0.19056932628154755
1788983118624806000,9.419805908203125,0.054368987679481506,0.0017118009272962809,0.09112583100795746
1788983118634765800,9.429765869140626,0.0585797093808651,0.014851039275527,-0.011151802726089954
1788983118644724700,9.439724853515624,0.04832619056105614,0.026771580800414085,-0.08714646846055984
1788983118654684700,9.4496845703125,0.023878902196884155,0.04176038131117821,-0.12088126689195633
1788983118664644000,9.45964404296875,-0.006330299191176891,0.05139217525720596,-0.12181530147790909
1788983118674604000,9.46960400390625,-0.036102574318647385,0.039434581995010376,-0.10332150757312775
1788983118684564000,9.47956396484375,-0.06228727102279663,0.02715495601296425,-0.08185604214668274
1788983118694523000,9.48952294921875,-0.08162874728441238,0.009703794494271278,-0.06558838486671448
1788983118704482800,9.49948291015625,-0.09645786881446838,-0.007219364866614342,-0.055556897073984146
1788983118714443000,9.509443115234374,-0.09816841781139374,-0.024105936288833618,-0.03679918497800827
1788983118724402000,9.51940185546875,-0.0903693214058876,-0.054066162556409836,-0.01268339529633522
1788983118734361900,9.52936181640625,-0.0788455531001091,-0.0837329775094986,0.010991040617227554
1788983118744320800,9.53932080078125,-0.07582079619169235,-0.09663184732198715,0.03299138695001602
1788983118754280700,9.54928076171875,-0.07568790018558502,-0.09535672515630722,0.04967396333813667
1788983118764241000,9.559240966796875,-0.08052225410938263,-0.0992899090051651,0.06361724436283112
1788983118774200000,9.569199951171875,-0.08614019304513931,-0.10753186047077179,0.0731460303068161
1788983118784160000,9.579159912109375,-0.09542987495660782,-0.10913410782814026,0.07355251908302307
1788983118794120000,9.589119873046876,-0.11805129796266556,-0.1245383620262146,0.05651361867785454
1788983118804078800,9.599078857421874,-0.15006351470947266,-0.12338420003652573,0.025494836270809174
1788983118814039000,9.6090390625,-0.17910288274288177,-0.12023448199033737,-0.006407701876014471
1788983118823998000,9.618998046875,-0.21791045367717743,-0.12545743584632874,-0.03362152352929115
1788983118833958000,9.6289580078125,-0.2521914541721344,-0.12733229994773865,-0.04570295289158821
1788983118843917800,9.638917724609374,-0.285135954618454,-0.1117304190993309,-0.04199039563536644
1788983118853876700,9.648876708984375,-0.32533928751945496,-0.08954788744449615,-0.024496091529726982
1788983118863837000,9.6588369140625,-0.35254237055778503,-0.0727848932147026,0.0034059244208037853
1788983118873796900,9.668796875,-0.3747808337211609,-0.07162614911794662,0.03077336773276329
1788983118883756000,9.678756103515624,-0.39586347341537476,-0.05708466097712517,0.062094103544950485
1788983118893716000,9.688716064453125,-0.41227760910987854,-0.03990727290511131,0.11046668887138367
1788983118903675000,9.6986748046875,-0.4245714843273163,-0.002256237668916583,0.17241570353507996
1788983118913634800,9.708634765625,-0.4363035261631012,0.06874071061611176,0.23875610530376434
1788983118923595000,9.718594970703125,-0.47434934973716736,0.13512544333934784,0.2959630489349365
1788983118933554000,9.728553955078125,-0.5026816725730896,0.1806362122297287,0.30596083402633667
1788983118943513900,9.738513916015625,-0.4926197826862335,0.21872827410697937,0.22738194465637207
1788983118953473800,9.748473876953126,-0.47438859939575195,0.27021753787994385,0.06643407046794891
1788983118963432700,9.7584326171875,-0.45427554845809937,0.43754449486732483,-0.18889854848384857
1788983118973393700,9.7683935546875,-0.41671857237815857,0.7311345934867859,-0.5218621492385864
1788983118983353600,9.778353515625,-0.4217139184474945,0.9818432331085205,-0.8146109580993652
1788983118993312500,9.7883125,-0.47653883695602417,1.0530582666397095,-0.9556812644004822
1788983119003272400,9.7982724609375,-0.5529819130897522,0.9628767967224121,-0.8730606436729431
1788983119013231900,9.80823193359375,-0.6494975686073303,0.7435050010681152,-0.5779986381530762
1788983119023191800,9.81819189453125,-0.725498616695404,0.43232741951942444,-0.11905095726251602
1788983119033151700,9.82815185546875,-0.7877191305160522,0.05267250910401344,0.383845716714859
1788983119043110700,9.838110595703125,-0.8490061163902283,-0.2973577678203583,0.7405257821083069
1788983119053070600,9.848070556640625,-0.9033457636833191,-0.5211911201477051,0.8749685287475586
1788983119063030800,9.85803076171875,-0.9833118915557861,-0.6593377590179443,0.796262800693512
1788983119072989700,9.86798974609375,-1.0794671773910522,-0.6995115280151367,0.5980743765830994
1788983119082949600,9.87794970703125,-1.190796136856079,-0.6820384860038757,0.34182459115982056
1788983119092908500,9.887908447265625,-1.3113232851028442,-0.60333251953125,0.10457422584295273
1788983119102868500,9.897868408203125,-1.4343942403793335,-0.5035340189933777,-0.05277111381292343
1788983119112828700,9.90782861328125,-1.558898687362671,-0.42485252022743225,-0.09507222473621368
1788983119122787800,9.917787841796875,-1.6709604263305664,-0.38427117466926575,-0.04600092023611069
1788983119132747800,9.927747802734375,-1.7912559509277344,-0.34973078966140747,0.056006938219070435
1788983119142707700,9.937707763671876,-1.8971961736679077,-0.2774592638015747,0.15964758396148682
1788983119152666600,9.94766650390625,-1.9719828367233276,-0.21365471184253693,0.2306264191865921
1788983119162626800,9.957626708984375,-2.0076229572296143,-0.1750795990228653,0.2597106397151947
1788983119172585700,9.967585693359375,-2.03774094581604,-0.1541338413953781,0.253335565328598
1788983119182545700,9.977545654296875,-2.07619309425354,-0.15144550800323486,0.20634795725345612
1788983119192505600,9.987505615234374,-2.119537115097046,-0.15479204058647156,0.1363781988620758
1788983119202464500,9.997464599609375,-2.171279191970825,-0.18691326677799225,0.07103784382343292
1788983119212424700,10.0074248046875,-2.2312119007110596,-0.2549043297767639,0.025090590119361877
1788983119222384600,10.017384521484376,-2.2908828258514404,-0.33796894550323486,0.00890612043440342
1788983119232343600,10.027343505859376,-2.363703966140747,-0.4110625684261322,0.008221155032515526
1788983119242303500,10.037303466796875,-2.448776960372925,-0.4688856303691864,0.007880112156271935
1788983119252263400,10.047263427734375,-2.5382394790649414,-0.5104051232337952,0.007430304307490587
1788983119262222600,10.05722265625,-2.625006675720215,-0.5438337326049805,0.0025354279205203056
1788983119272182800,10.067182861328124,-2.699018716812134,-0.5741697549819946,-0.0012478590942919254
1788983119282141700,10.0771416015625,-2.759580612182617,-0.5848022699356079,-0.0010645873844623566
1788983119292101600,10.0871015625,-2.8077356815338135,-0.5799206495285034,-0.00319937733002007
1788983119302061600,10.0970615234375,-2.8342702388763428,-0.5653789639472961,-0.002039539162069559
1788983119312020500,10.1070205078125,-2.8442959785461426,-0.5430147647857666,0.0031379121355712414
1788983119321980700,10.116980712890625,-2.8353378772735596,-0.5091856122016907,0.004643449559807777
1788983119331940600,10.126940673828125,-2.8036184310913086,-0.4727602005004883,0.010079494677484035
1788983119341899500,10.1368994140625,-2.750737190246582,-0.44003766775131226,0.011444209143519402
1788983119351859500,10.146859375,-2.6934661865234375,-0.4278976321220398,0.0036187758669257164
1788983119361818600,10.156818603515624,-2.6383755207061768,-0.43070188164711,-0.00723824929445982
1788983119371778800,10.16677880859375,-2.585659980773926,-0.4443418085575104,-0.0162969920784235
1788983119381738800,10.17673876953125,-2.5362775325775146,-0.44347840547561646,-0.00955147109925747
1788983119391697700,10.18669775390625,-2.4868876934051514,-0.42512309551239014,0.013740003108978271
1788983119401657600,10.19665771484375,-2.445110321044922,-0.41068336367607117,0.041121091693639755
1788983119411617800,10.20661767578125,-2.3981540203094482,-0.3738390803337097,0.0688571110367775
1788983119421576700,10.21657666015625,-2.3384718894958496,-0.33795836567878723,0.08521588891744614
1788983119431536600,10.22653662109375,-2.2839579582214355,-0.2911551892757416,0.08949799090623856
1788983119441495600,10.23649560546875,-2.2360286712646484,-0.25015947222709656,0.08182884007692337
1788983119451455500,10.24645556640625,-2.1919779777526855,-0.2214210480451584,0.058381300419569016
1788983119461415400,10.25641552734375,-2.139327049255371,-0.19364361464977264,0.0311261136084795
1788983119471374800,10.266374755859376,-2.082949161529541,-0.17875680327415466,0.010801399126648903
1788983119481334800,10.276334716796875,-2.025189161300659,-0.16873282194137573,0.012850272469222546
1788983119491294700,10.286294677734375,-1.9685604572296143,-0.15752199292182922,0.034597910940647125
1788983119501253600,10.296253662109375,-1.9099889993667603,-0.15264277160167694,0.07083702087402344
1788983119511213600,10.306213623046874,-1.8455058336257935,-0.1404888927936554,0.10299282521009445
1788983119521172700,10.3161728515625,-1.7885981798171997,-0.1279325634241104,0.12962937355041504
1788983119531132700,10.326132568359375,-1.7279481887817383,-0.11618669331073761,0.1423417031764984
1788983119541092600,10.336092529296875,-1.668778419494629,-0.12344630062580109,0.13963450491428375
1788983119551051500,10.346051513671876,-1.6124036312103271,-0.1441875398159027,0.12792272865772247
1788983119561011500,10.356011474609375,-1.5575705766677856,-0.15923313796520233,0.11736711114645004
1788983119570971600,10.3659716796875,-1.498600721359253,-0.1818748116493225,0.11858204752206802
1788983119580930800,10.375930908203125,-1.4278186559677124,-0.20024535059928894,0.12091180682182312
1788983119590890800,10.385890869140624,-1.359053134918213,-0.21475131809711456,0.12378323078155518
1788983119600849700,10.395849609375,-1.3002760410308838,-0.1949625313282013,0.11848610639572144
1788983119610809600,10.4058095703125,-1.2370891571044922,-0.15383052825927734,0.10926011949777603
1788983119620769800,10.415769775390626,-1.1711605787277222,-0.100265733897686,0.09742630273103714
1788983119630728700,10.425728759765626,-1.0994696617126465,-0.03621244803071022,0.09064962714910507
1788983119640688600,10.435688720703125,-1.0193413496017456,0.024346262216567993,0.10116256028413773
1788983119650648600,10.445648681640625,-0.9375452399253845,0.07279395312070847,0.12141190469264984
1788983119660607500,10.455607421875,-0.8563457727432251,0.09637002646923065,0.16005943715572357
1788983119670567700,10.465567626953124,-0.7856788039207458,0.07693853974342346,0.21061769127845764
1788983119680527600,10.475527587890625,-0.7283387780189514,-0.0016875125002115965,0.2559891939163208
1788983119690486800,10.48548681640625,-0.6869117617607117,-0.1336338371038437,0.295573353767395
1788983119700446700,10.49544677734375,-0.6601083874702454,-0.26941362023353577,0.3252100646495819
1788983119710405600,10.505405517578126,-0.654610276222229,-0.36581605672836304,0.3303494155406952
1788983119720365600,10.515365478515625,-0.6606770157814026,-0.3960883319377899,0.2914864122867584
1788983119730325800,10.52532568359375,-0.6165537238121033,-0.42000672221183777,0.16649200022220612
1788983119740284700,10.53528466796875,-0.5364063382148743,-0.5468490123748779,-0.11958392709493637
1788983119750244600,10.54524462890625,-0.5006086826324463,-0.6239893436431885,-0.5636181235313416
1788983119760204500,10.55520458984375,-0.5490728616714478,-0.5375893115997314,-1.041379451751709
1788983119770163500,10.56516357421875,-0.6406288743019104,-0.3396208584308624,-1.3217450380325317
1788983119780123600,10.57512353515625,-0.7018768191337585,-0.06815088540315628,-1.1811872720718384
1788983119790082800,10.585082763671876,-0.6794375777244568,0.2853722870349884,-0.5941926836967468
1788983119800042800,10.595042724609375,-0.5609723329544067,0.5930724740028381,0.22891320288181305
1788983119810002700,10.605002685546875,-0.42044535279273987,0.7143980860710144,0.9285394549369812
1788983119819961600,10.614961669921875,-0.34066760540008545,0.6886827945709229,1.2584213018417358
1788983119829921800,10.624921875,-0.2967155873775482,0.6733824014663696,1.2439968585968018
1788983119839881700,10.6348818359375,-0.2662431001663208,0.5573035478591919,1.0381457805633545
1788983119849840600,10.644840576171875,-0.2237028330564499,0.3583308160305023,0.7593040466308594
1788983119859800600,10.654800537109375,-0.18241679668426514,0.12113671004772186,0.44075828790664673
1788983119869759500,10.664759521484376,-0.15428875386714935,-0.12927128374576569,0.08344516903162003
1788983119879719700,10.6747197265625,-0.14078739285469055,-0.2907239496707916,-0.2755480110645294
1788983119889679600,10.6846796875,-0.14605353772640228,-0.3825649321079254,-0.5443238019943237
1788983119899638500,10.694638427734375,-0.160383403301239,-0.45232224464416504,-0.6794859170913696
1788983119909598500,10.704598388671876,-0.13941580057144165,-0.5005154013633728,-0.6859720349311829
1788983119919558400,10.714558349609375,-0.06853877007961273,-0.43366578221321106,-0.5840991139411926
1788983119929517800,10.724517822265625,-0.10414309799671173,-0.28626805543899536,-0.4607444405555725
1788983119939477800,10.734477783203126,-0.19530679285526276,-0.09750912338495255,-0.39821651577949524
1788983119949436700,10.744436767578126,-0.26805049180984497,0.10053391754627228,-0.34851711988449097
1788983119959396600,10.754396728515625,-0.31509310007095337,0.19105155766010284,-0.24762272834777832
1788983119969356500,10.7643564453125,-0.3598790466785431,0.1914491355419159,-0.09709237515926361
1788983119979315500,10.7743154296875,-0.4181748926639557,0.1546574831008911,0.045961007475852966
1788983119989275400,10.784275390625,-0.4668433666229248,0.11431965231895447,0.14320634305477142
1788983119999235600,10.794235595703125,-0.4794435501098633,0.07204397767782211,0.20454750955104828
1788983120009194500,10.804194580078125,-0.46076148748397827,0.036497700959444046,0.23753422498703003
1788983120019154400,10.814154541015625,-0.43908578157424927,0.0013504656963050365,0.24505989253520966
1788983120029114400,10.8241142578125,-0.4109537601470947,-0.040473680943250656,0.23901984095573425
1788983120039073500,10.834073486328125,-0.3697911202907562,-0.09760221093893051,0.21559201180934906
1788983120049033500,10.844033447265625,-0.3377154767513275,-0.1456269919872284,0.16196154057979584
1788983120058992600,10.85399267578125,-0.3159360885620117,-0.18572759628295898,0.08892659842967987
1788983120068952600,10.86395263671875,-0.30735859274864197,-0.21335256099700928,0.013372182846069336
1788983120078912500,10.87391259765625,-0.3209644854068756,-0.22210320830345154,-0.055863648653030396
1788983120088871400,10.883871337890625,-0.34633615612983704,-0.21715159714221954,-0.0959404930472374
1788983120098831400,10.893831298828125,-0.37589460611343384,-0.18808281421661377,-0.11726661026477814
1788983120108791600,10.90379150390625,-0.4002055525779724,-0.1493455320596695,-0.1103391945362091
1788983120118750500,10.91375048828125,-0.4220505952835083,-0.11385340243577957,-0.09131541848182678
1788983120128710400,10.92371044921875,-0.4289740324020386,-0.08148054778575897,-0.07030680775642395
1788983120138669600,10.933669677734375,-0.42942601442337036,-0.04255444183945656,-0.05338490009307861
1788983120148629500,10.94362939453125,-0.423429399728775,-0.018537787720561028,-0.03893272206187248
1788983120158589700,10.953589599609375,-0.40718507766723633,-0.01770757883787155,-0.013042435050010681
1788983120168548600,10.963548583984375,-0.38378414511680603,-0.03815639764070511,0.037236448377370834
1788983120178508500,10.973508544921875,-0.36332130432128906,-0.08113735169172287,0.10440436750650406
1788983120188468500,10.983468505859374,-0.35413286089897156,-0.1402142494916916,0.16736601293087006
1788983120198427400,10.993427490234374,-0.3423495590686798,-0.1814906895160675,0.20626111328601837
1788983120208387600,11.0033876953125,-0.3426946997642517,-0.208764910697937,0.22063127160072327
1788983120218346500,11.013346435546875,-0.3585048019886017,-0.21813935041427612,0.2146824598312378
1788983120228306400,11.023306396484376,-0.38601231575012207,-0.2104063332080841,0.2084440141916275
1788983120238266400,11.033266357421875,-0.4304647445678711,-0.19927014410495758,0.20052553713321686
1788983120248225500,11.0432255859375,-0.4709189534187317,-0.18094439804553986,0.19315657019615173
1788983120258185700,11.053185791015625,-0.5203967690467834,-0.15500333905220032,0.18127967417240143
1788983120268145700,11.063145751953124,-0.5792270302772522,-0.11083295941352844,0.17794698476791382
1788983120278104600,11.0731044921875,-0.638643205165863,-0.06112252175807953,0.19319364428520203
1788983120288064500,11.083064453125,-0.7050390243530273,-0.01594971865415573,0.22509564459323883
1788983120298023400,11.0930234375,-0.7668972015380859,0.0438886322081089,0.25920483469963074
1788983120307983600,11.102983642578126,-0.8155592679977417,0.1002829298377037,0.3029344975948334
1788983120317943600,11.112943603515625,-0.849226176738739,0.16533513367176056,0.33934977650642395
1788983120327902500,11.12290234375,-0.8786956667900085,0.2389180064201355,0.3610212504863739
1788983120337862400,11.1328623046875,-0.9134740233421326,0.32933109998703003,0.37348562479019165
1788983120347822300,11.142822265625,-0.9471584558486938,0.4091673493385315,0.38689011335372925
1788983120357781500,11.152781494140624,-0.9769570231437683,0.46819767355918884,0.4040350317955017
1788983120367741700,11.16274169921875,-1.021147608757019,0.48025354743003845,0.39305800199508667
1788983120377700600,11.17270068359375,-1.0522191524505615,0.5056108832359314,0.31002652645111084
1788983120387660500,11.18266064453125,-1.0162034034729004,0.6275807023048401,0.09270140528678894
1788983120397620500,11.192620361328125,-0.94440096616745,0.7644299864768982,-0.28879889845848083
1788983120407579400,11.202579345703125,-0.9543497562408447,0.7777646780014038,-0.7620242238044739
1788983120417539600,11.21253955078125,-1.0676261186599731,0.6517863273620605,-1.1481552124023438
1788983120427499500,11.22249951171875,-1.2043410539627075,0.4736248254776001,-1.2499148845672607
1788983120437458400,11.23245849609375,-1.2935335636138916,0.24821193516254425,-0.9700947999954224
1788983120447418400,11.24241845703125,-1.3260102272033691,0.13393115997314453,-0.36032968759536743
1788983120457378600,11.252378662109376,-1.3210320472717285,0.07722876965999603,0.3856595754623413
1788983120467337700,11.262337646484376,-1.2891652584075928,0.06058694049715996,1.002707839012146
1788983120477297700,11.272297607421875,-1.2722539901733398,0.05518733710050583,1.3256210088729858
1788983120487256600,11.282256591796875,-1.2683711051940918,0.03190278634428978,1.3910831212997437
1788983120497216500,11.292216552734375,-1.2610660791397095,0.006152171175926924,1.3206920623779297
1788983120507176400,11.302176513671874,-1.2427891492843628,-0.06798384338617325,1.1406056880950928
1788983120517135600,11.312135498046874,-1.2405803203582764,-0.13432657718658447,0.8687012791633606
1788983120527095600,11.322095458984375,-1.277823567390442,-0.18352794647216797,0.5160201787948608
1788983120537055500,11.332055419921875,-1.3365410566329956,-0.23545975983142853,0.12143895775079727
1788983120547014400,11.342014404296876,-1.397843599319458,-0.29117870330810547,-0.23133745789527893
1788983120556974300,11.351974365234375,-1.4693821668624878,-0.3627110421657562,-0.45344704389572144
1788983120566933500,11.36193359375,-1.5593583583831787,-0.44358935952186584,-0.5368410348892212
1788983120576893700,11.371893798828125,-1.6405291557312012,-0.467031866312027,-0.5083492398262024
1788983120586853600,11.381853515625,-1.693355917930603,-0.4428847134113312,-0.4208846092224121
1788983120596812500,11.3918125,-1.727262020111084,-0.391662061214447,-0.3014574348926544
1788983120606772500,11.4017724609375,-1.7463710308074951,-0.3082798421382904,-0.1531374752521515
1788983120616732700,11.411732666015626,-1.757447600364685,-0.251248836517334,0.016149936243891716
1788983120626691600,11.421691650390626,-1.7775121927261353,-0.1963791847229004,0.1958552449941635
1788983120636651500,11.431651611328125,-1.797515869140625,-0.1487259715795517,0.3250975012779236
1788983120646610400,11.4416103515625,-1.805579662322998,-0.10638038069009781,0.3822510838508606
1788983120656570400,11.4515703125,-1.8029115200042725,-0.05417720973491669,0.3867661952972412
1788983120666530600,11.461530517578124,-1.8098738193511963,-0.030323272570967674,0.3761622905731201
1788983120676489500,11.471489501953124,-1.833260178565979,-0.030560696497559547,0.36216431856155396
1788983120686449400,11.481449462890625,-1.8642950057983398,-0.0360872857272625,0.3350248336791992
1788983120696409300,11.491409423828125,-1.8927603960037231,-0.042322125285863876,0.31155622005462646
1788983120706368500,11.501368408203126,-1.9243288040161133,-0.054279718548059464,0.28810417652130127
1788983120716328700,11.51132861328125,-1.9587095975875854,-0.055000461637973785,0.24981792271137238
1788983120726288600,11.52128857421875,-1.9973338842391968,-0.06157181039452553,0.20269009470939636
1788983120736247600,11.53124755859375,-2.025832176208496,-0.09106870740652084,0.1531333029270172
1788983120746207500,11.54120751953125,-2.052232503890991,-0.12293289601802826,0.1163979321718216
1788983120756166400,11.55116650390625,-2.0801501274108887,-0.16233381628990173,0.0981416180729866
1788983120766126600,11.561126708984375,-2.107544422149658,-0.19815200567245483,0.09988971799612045
1788983120776086500,11.57108642578125,-2.1255221366882324,-0.21386632323265076,0.11885322630405426
1788983120786045400,11.58104541015625,-2.1332013607025146,-0.2249288260936737,0.14135026931762695
1788983120796005400,11.59100537109375,-2.133113145828247,-0.22788751125335693,0.16529786586761475
1788983120805965300,11.60096533203125,-2.1314027309417725,-0.22065649926662445,0.18149228394031525
1788983120815924500,11.610924560546875,-2.122297763824463,-0.21732982993125916,0.1893119513988495
1788983120825884700,11.620884765625,-2.11684250831604,-0.22691242396831512,0.19374984502792358
1788983120835843600,11.630843505859374,-2.1068618297576904,-0.24119354784488678,0.20792272686958313
1788983120845803500,11.640803466796875,-2.0966901779174805,-0.25854966044425964,0.22172482311725616
1788983120855763500,11.650763427734375,-2.086317300796509,-0.26390179991722107,0.24178436398506165
1788983120865722400,11.660722412109376,-2.0762550830841064,-0.2658858597278595,0.25844135880470276
1788983120875682600,11.6706826171875,-2.065779685974121,-0.27118828892707825,0.26832813024520874
1788983120885642500,11.680642578125,-2.0488228797912598,-0.2957199811935425,0.2669645845890045
1788983120895601400,11.690601318359375,-2.0322203636169434,-0.3146248757839203,0.26100513339042664
1788983120905561300,11.700561279296876,-2.0144143104553223,-0.35527271032333374,0.269006609916687
1788983120915520500,11.7105205078125,-1.997873067855835,-0.40938347578048706,0.28570306301116943
1788983120925480700,11.720480712890625,-1.9728987216949463,-0.4663011133670807,0.3176697790622711
1788983120935440600,11.730440673828125,-1.9478600025177002,-0.505075991153717,0.3445197641849518
1788983120945399600,11.740399658203126,-1.924971103668213,-0.5232041478157043,0.3597930073738098
1788983120955359500,11.750359375,-1.9039686918258667,-0.5425292253494263,0.3736357092857361
1788983120965319700,11.760319580078125,-1.8868927955627441,-0.5515235066413879,0.3879089057445526
1788983120975278300,11.7702783203125,-1.8723669052124023,-0.5521469712257385,0.4016495645046234
1788983120985238500,11.780238525390626,-1.8615185022354126,-0.5727635622024536,0.4232123792171478
1788983120995197400,11.790197509765624,-1.8539832830429077,-0.5961332321166992,0.4495964050292969
1788983121005157400,11.800157470703125,-1.8496977090835571,-0.6237297058105469,0.4778916835784912
1788983121015117300,11.810117431640625,-1.8361022472381592,-0.6458178758621216,0.5046143531799316
1788983121025076500,11.820076416015626,-1.8150943517684937,-0.6536600589752197,0.5194250345230103
1788983121035036400,11.830036376953124,-1.7846059799194336,-0.6630395650863647,0.4887363612651825
1788983121044996600,11.83999658203125,-1.7155015468597412,-0.7196308970451355,0.34687429666519165
1788983121054955500,11.84995556640625,-1.6112571954727173,-0.8452258110046387,0.04442451894283295
1788983121064915500,11.85991552734375,-1.5950604677200317,-0.9138475060462952,-0.35493940114974976
1788983121074874400,11.869874267578124,-1.7219957113265991,-0.8543431758880615,-0.6686568856239319
1788983121084834300,11.879834228515625,-1.8848772048950195,-0.868056058883667,-0.7245920896530151
1788983121094794500,11.88979443359375,-1.9483671188354492,-0.8700609803199768,-0.41048571467399597
1788983121104753400,11.89975341796875,-1.9089808464050293,-0.8310222029685974,0.2031284123659134
1788983121114713300,11.90971337890625,-1.8293287754058838,-0.7465333938598633,0.8187165260314941
1788983121124673300,11.91967333984375,-1.764904499053955,-0.5897720456123352,1.1333465576171875
1788983121134632400,11.929632568359375,-1.7080743312835693,-0.5473101139068604,1.0359233617782593
1788983121144592600,11.939592529296876,-1.6592944860458374,-0.5160302519798279,0.6564539670944214
1788983121154551600,11.949551513671874,-1.6100201606750488,-0.4023510217666626,0.20794737339019775
1788983121164511500,11.959511474609375,-1.5546923875808716,-0.26800069212913513,-0.1384585052728653
1788983121174471400,11.969471435546875,-1.486009955406189,-0.17874106764793396,-0.25646862387657166
1788983121184430300,11.979430419921876,-1.3939212560653687,-0.13866713643074036,-0.182480126619339
1788983121194390500,11.989390625,-1.2559207677841187,-0.07407348603010178,-0.012045715004205704
1788983121204350500,11.9993505859375,-1.1017042398452759,-0.014842119999229908,0.15975162386894226
1788983121214309400,12.009309326171875,-0.9701884984970093,0.017279699444770813,0.28492265939712524
1788983121224269300,12.019269287109376,-0.867479681968689,0.0035503054969012737,0.34424376487731934
1788983121234228500,12.029228515625,-0.7743414044380188,-0.037166059017181396,0.35348132252693176
1788983121244188700,12.039188720703125,-0.6991880536079407,-0.09917003661394119,0.328959196805954
1788983121254148600,12.049148681640625,-0.6508585810661316,-0.15235427021980286,0.2764420807361603
1788983121264107500,12.059107421875,-0.6228339076042175,-0.19571399688720703,0.22392669320106506
1788983121274067500,12.0690673828125,-0.6098753213882446,-0.22924090921878815,0.19158752262592316
1788983121284027400,12.07902734375,-0.6161018013954163,-0.270283967256546,0.16675648093223572
1788983121293986300,12.088986328125,-0.6342445015907288,-0.279719740152359,0.14245201647281647
1788983121303946500,12.098946533203126,-0.6566544771194458,-0.2651764750480652,0.1255342811346054
1788983121313906400,12.108906494140625,-0.6775436401367188,-0.24539394676685333,0.12368971854448318
1788983121323865300,12.118865234375,-0.6794970631599426,-0.22073280811309814,0.1405153125524521
1788983121333825300,12.1288251953125,-0.6651167273521423,-0.2060956507921219,0.16026076674461365
1788983121343784400,12.138784423828126,-0.6308159828186035,-0.1899648755788803,0.17095229029655457
1788983121353744400,12.148744384765624,-0.5835299491882324,-0.17463822662830353,0.1691492348909378
1788983121363704300,12.158704345703125,-0.5236591696739197,-0.14396846294403076,0.16300931572914124
1788983121373663500,12.16866357421875,-0.45876380801200867,-0.11646810173988342,0.15848250687122345
1788983121383623400,12.17862353515625,-0.39960435032844543,-0.10496777296066284,0.16029983758926392
1788983121393583600,12.18858349609375,-0.3404463529586792,-0.10977461189031601,0.166407972574234
1788983121403542500,12.19854248046875,-0.2851213216781616,-0.12820209562778473,0.16528359055519104
1788983121413502500,12.20850244140625,-0.24276164174079895,-0.14002658426761627,0.15396001935005188
1788983121423461400,12.21846142578125,-0.21190252900123596,-0.15251335501670837,0.1471620351076126
